subjectid,accuracy,latency,ref,deg0,deg1,deg_diff,deg_diff_ref,corr_color,trial_type,trial,time_elapsed,internal_node_id,subid,correct_resp,response,response_repetition
40408,1,1925,383,416,325,91,25,blue,arrow-stim ,2,141175,0.0-2.0-0.0 ,40408,,1,switch
40408,0,1886,163,219,130,89,23,green,arrow-stim ,3,147328,0.0-2.0-0.1 ,40408,,1,repeat
40408,1,2343,-77,-106,-19,87,29,blue,arrow-stim ,4,153931,0.0-2.0-0.2 ,40408,,1,repeat
40408,1,1039,83,142,50,92,26,green,arrow-stim ,5,159236,0.0-2.0-0.3 ,40408,,0,switch
40408,1,1218,43,-16,68,84,34,blue,arrow-stim ,6,164716,0.0-2.0-0.4 ,40408,,1,switch
40408,1,3689,163,134,216,82,24,green,arrow-stim ,7,172668,0.0-2.0-0.5 ,40408,,0,switch
40408,1,1237,-77,-111,-22,89,21,blue,arrow-stim ,8,178170,0.0-2.0-0.6 ,40408,,1,switch
40408,1,767,163,140,213,73,27,green,arrow-stim ,9,183196,0.0-2.0-0.7 ,40408,,0,switch
40408,1,1239,383,359,429,70,22,green,arrow-stim ,10,188695,0.0-2.0-0.8 ,40408,,0,repeat
40408,1,1003,-77,-134,-42,92,22,green,arrow-stim ,11,193962,0.0-2.0-0.9 ,40408,,0,repeat
40408,1,818,43,-13,77,90,22,blue,arrow-stim ,13,204202,0.0-4.0-0.0 ,40408,,1,switch
40408,1,810,43,16,98,82,28,green,arrow-stim ,14,208523,0.0-4.0-0.1 ,40408,,0,switch
40408,1,702,383,357,441,84,32,green,arrow-stim ,15,212735,0.0-4.0-0.2 ,40408,,0,repeat
40408,1,763,383,350,438,88,22,green,arrow-stim ,16,217015,0.0-4.0-0.3 ,40408,,0,repeat
40408,1,870,43,5,101,96,20,green,arrow-stim ,17,221398,0.0-4.0-0.4 ,40408,,0,repeat
40408,1,777,43,-15,72,87,29,blue,arrow-stim ,18,225689,0.0-4.0-0.5 ,40408,,1,switch
40408,1,1299,83,120,26,94,20,blue,arrow-stim ,19,230503,0.0-4.0-0.6 ,40408,,1,repeat
40408,1,780,43,102,5,97,21,green,arrow-stim ,20,234795,0.0-4.0-0.7 ,40408,,0,switch
40408,1,649,383,352,435,83,21,green,arrow-stim ,21,238958,0.0-4.0-0.8 ,40408,,0,repeat
40408,1,775,383,325,409,84,32,blue,arrow-stim ,22,243252,0.0-4.0-0.9 ,40408,,1,switch
40408,1,971,-77,-53,-126,73,25,green,arrow-stim ,23,247736,0.0-4.0-0.10 ,40408,,0,switch
40408,1,673,43,-15,81,96,20,blue,arrow-stim ,24,251929,0.0-4.0-0.11 ,40408,,1,switch
40408,1,782,43,78,-12,90,20,blue,arrow-stim ,25,256223,0.0-4.0-0.12 ,40408,,1,repeat
40408,1,946,83,24,107,83,35,blue,arrow-stim ,26,260679,0.0-4.0-0.13 ,40408,,1,repeat
40408,1,582,-77,-52,-135,83,33,green,arrow-stim ,27,264777,0.0-4.0-0.14 ,40408,,0,switch
40408,1,619,83,54,132,78,20,green,arrow-stim ,28,268906,0.0-4.0-0.15 ,40408,,0,repeat
40408,1,863,-77,-135,-41,94,22,green,arrow-stim ,29,273278,0.0-4.0-0.16 ,40408,,0,repeat
40408,1,1192,163,126,222,96,22,green,arrow-stim ,30,277977,0.0-4.0-0.17 ,40408,,0,repeat
40408,1,720,163,125,221,96,20,green,arrow-stim ,31,282207,0.0-4.0-0.18 ,40408,,0,repeat
40408,1,844,83,129,59,70,22,green,arrow-stim ,32,286562,0.0-4.0-0.19 ,40408,,0,repeat
40408,1,1287,-77,-18,-107,89,29,blue,arrow-stim ,33,291360,0.0-4.0-0.20 ,40408,,1,switch
40408,1,2664,383,437,354,83,25,green,arrow-stim ,34,297542,0.0-4.0-0.21 ,40408,,0,switch
40408,1,1191,163,127,222,95,23,green,arrow-stim ,35,302244,0.0-4.0-0.22 ,40408,,0,repeat
40408,1,874,83,127,60,67,21,green,arrow-stim ,36,306628,0.0-4.0-0.23 ,40408,,0,repeat
40408,1,733,43,67,-15,82,34,blue,arrow-stim ,37,310870,0.0-4.0-0.24 ,40408,,1,switch
40408,1,1207,163,108,191,83,27,blue,arrow-stim ,38,315590,0.0-4.0-0.25 ,40408,,1,repeat
40408,1,784,-77,-135,-39,96,20,green,arrow-stim ,39,319889,0.0-4.0-0.26 ,40408,,0,switch
40408,1,1023,43,-15,81,96,20,blue,arrow-stim ,40,324429,0.0-4.0-0.27 ,40408,,1,switch
40408,1,861,83,59,128,69,21,green,arrow-stim ,41,328801,0.0-4.0-0.28 ,40408,,0,switch
40408,1,749,163,206,142,64,22,green,arrow-stim ,42,333065,0.0-4.0-0.29 ,40408,,0,repeat
40408,1,919,383,357,442,85,33,green,arrow-stim ,43,337496,0.0-4.0-0.30 ,40408,,0,repeat
40408,1,1007,83,119,24,95,23,blue,arrow-stim ,44,342017,0.0-4.0-0.31 ,40408,,1,switch
40408,1,768,43,16,90,74,20,green,arrow-stim ,45,346293,0.0-4.0-0.32 ,40408,,0,switch
40408,1,905,163,187,113,74,26,blue,arrow-stim ,46,350709,0.0-4.0-0.33 ,40408,,1,switch
40408,1,766,383,438,355,83,27,green,arrow-stim ,47,354990,0.0-4.0-0.34 ,40408,,0,switch
40408,1,687,383,432,358,74,24,green,arrow-stim ,48,359189,0.0-4.0-0.35 ,40408,,0,repeat
40408,1,1148,-77,-99,-21,78,34,blue,arrow-stim ,49,363851,0.0-4.0-0.36 ,40408,,1,switch
40408,1,824,43,16,96,80,26,green,arrow-stim ,51,374197,0.0-4.0-0.38 ,40408,,0,switch
40408,1,1023,383,348,440,92,22,green,arrow-stim ,52,378732,0.0-4.0-0.39 ,40408,,0,repeat
40408,1,946,-77,-40,-134,94,20,green,arrow-stim ,53,383191,0.0-4.0-0.40 ,40408,,0,repeat
40408,1,754,383,436,352,84,22,green,arrow-stim ,54,387457,0.0-4.0-0.41 ,40408,,0,repeat
40408,1,882,-77,-131,-45,86,22,green,arrow-stim ,55,391849,0.0-4.0-0.42 ,40408,,0,repeat
40408,1,729,-77,-46,-136,90,28,green,arrow-stim ,56,396093,0.0-4.0-0.43 ,40408,,0,repeat
40408,1,839,163,105,195,90,26,blue,arrow-stim ,57,400447,0.0-4.0-0.44 ,40408,,1,switch
40408,1,624,383,358,437,79,29,green,arrow-stim ,58,404585,0.0-4.0-0.45 ,40408,,0,switch
40408,1,890,163,118,185,67,23,blue,arrow-stim ,59,408986,0.0-4.0-0.46 ,40408,,1,switch
40408,1,802,-77,-44,-132,88,22,green,arrow-stim ,60,413301,0.0-4.0-0.47 ,40408,,0,switch
40408,1,681,43,-2,65,67,23,blue,arrow-stim ,61,417498,0.0-4.0-0.48 ,40408,,1,switch
40408,1,717,43,23,96,73,33,green,arrow-stim ,62,421726,0.0-4.0-0.49 ,40408,,0,switch
40408,1,923,83,31,114,83,21,blue,arrow-stim ,63,426160,0.0-4.0-0.50 ,40408,,1,switch
40408,1,817,383,324,415,91,27,blue,arrow-stim ,64,430488,0.0-4.0-0.51 ,40408,,1,repeat
40408,1,868,383,327,413,86,26,blue,arrow-stim ,65,434873,0.0-4.0-0.52 ,40408,,1,repeat
40408,1,628,163,222,128,94,24,green,arrow-stim ,66,439010,0.0-4.0-0.53 ,40408,,0,switch
40408,1,1161,43,-6,64,70,28,blue,arrow-stim ,67,443684,0.0-4.0-0.54 ,40408,,1,switch
40408,1,1023,-77,-22,-106,84,26,blue,arrow-stim ,68,448220,0.0-4.0-0.55 ,40408,,1,repeat
40408,0,743,163,190,107,83,29,blue,arrow-stim ,69,452471,0.0-4.0-0.56 ,40408,,0,switch
40408,1,1020,-77,-21,-109,88,24,blue,arrow-stim ,70,457002,0.0-4.0-0.57 ,40408,,1,switch
40408,1,785,43,-13,64,77,35,blue,arrow-stim ,71,461302,0.0-4.0-0.58 ,40408,,1,repeat
40408,1,1208,-77,-39,-136,97,21,green,arrow-stim ,72,466022,0.0-4.0-0.59 ,40408,,0,switch
40408,1,770,43,-14,76,90,24,blue,arrow-stim ,73,470305,0.0-4.0-0.60 ,40408,,1,switch
40408,1,838,83,25,118,93,23,blue,arrow-stim ,74,474656,0.0-4.0-0.61 ,40408,,1,repeat
40408,1,794,383,355,433,78,22,green,arrow-stim ,75,478964,0.0-4.0-0.62 ,40408,,0,switch
40408,1,696,383,360,436,76,30,green,arrow-stim ,76,483168,0.0-4.0-0.63 ,40408,,0,repeat
40408,1,660,383,439,353,86,26,green,arrow-stim ,77,487341,0.0-4.0-0.64 ,40408,,0,repeat
40408,1,956,43,-11,68,79,29,blue,arrow-stim ,78,491805,0.0-4.0-0.65 ,40408,,1,switch
40408,1,803,383,326,419,93,21,blue,arrow-stim ,79,496125,0.0-4.0-0.66 ,40408,,1,repeat
40408,1,1999,163,201,104,97,21,blue,arrow-stim ,80,501632,0.0-4.0-0.67 ,40408,,1,repeat
40408,1,837,163,105,201,96,20,blue,arrow-stim ,81,505982,0.0-4.0-0.68 ,40408,,1,repeat
40408,1,888,43,13,95,82,22,green,arrow-stim ,82,510381,0.0-4.0-0.69 ,40408,,0,switch
40408,1,972,-77,-50,-128,78,24,green,arrow-stim ,83,514863,0.0-4.0-0.70 ,40408,,0,repeat
40408,1,859,383,407,324,83,35,blue,arrow-stim ,84,519234,0.0-4.0-0.71 ,40408,,1,switch
40408,1,708,43,-14,78,92,22,blue,arrow-stim ,85,523453,0.0-4.0-0.72 ,40408,,1,repeat
40408,1,700,-77,-121,-57,64,24,green,arrow-stim ,86,527665,0.0-4.0-0.73 ,40408,,0,switch
40408,1,693,43,102,16,86,32,green,arrow-stim ,87,531863,0.0-4.0-0.74 ,40408,,0,repeat
40408,1,982,163,186,112,74,28,blue,arrow-stim ,88,536360,0.0-4.0-0.75 ,40408,,1,switch
40408,1,830,-77,-103,-24,79,27,blue,arrow-stim ,89,540706,0.0-4.0-0.76 ,40408,,1,repeat
40408,1,755,-77,-33,-100,67,21,blue,arrow-stim ,90,544979,0.0-4.0-0.77 ,40408,,1,repeat
40408,1,921,83,104,37,67,25,blue,arrow-stim ,91,549406,0.0-4.0-0.78 ,40408,,1,repeat
40408,1,669,383,408,328,80,30,blue,arrow-stim ,92,553593,0.0-4.0-0.79 ,40408,,1,repeat
40408,1,672,43,-16,74,90,28,blue,arrow-stim ,93,557779,0.0-4.0-0.80 ,40408,,1,repeat
40408,1,646,83,125,63,62,22,green,arrow-stim ,94,561937,0.0-4.0-0.81 ,40408,,0,switch
40408,1,552,83,138,54,84,26,green,arrow-stim ,95,566004,0.0-4.0-0.82 ,40408,,0,repeat
40408,1,814,83,26,104,78,36,blue,arrow-stim ,96,570328,0.0-4.0-0.83 ,40408,,1,switch
40408,1,566,83,138,52,86,24,green,arrow-stim ,97,574406,0.0-4.0-0.84 ,40408,,0,switch
40408,1,803,43,9,99,90,22,green,arrow-stim ,98,578720,0.0-4.0-0.85 ,40408,,0,repeat
40408,1,1134,-77,-108,-18,90,28,blue,arrow-stim ,99,583367,0.0-4.0-0.86 ,40408,,1,switch
40408,1,1039,163,222,131,91,27,green,arrow-stim ,100,587918,0.0-4.0-0.87 ,40408,,0,switch
40408,1,787,-77,-48,-132,84,26,green,arrow-stim ,101,592215,0.0-4.0-0.88 ,40408,,0,repeat
40408,1,854,163,132,219,87,25,green,arrow-stim ,102,596579,0.0-4.0-0.89 ,40408,,0,repeat
40408,1,542,163,136,214,78,24,green,arrow-stim ,103,600632,0.0-4.0-0.90 ,40408,,0,repeat
40408,1,830,-77,-135,-55,80,36,green,arrow-stim ,104,604980,0.0-4.0-0.91 ,40408,,0,repeat
40408,1,820,43,10,101,91,25,green,arrow-stim ,105,609308,0.0-4.0-0.92 ,40408,,0,repeat
40408,1,625,43,-14,70,84,30,blue,arrow-stim ,106,613445,0.0-4.0-0.93 ,40408,,1,switch
40408,1,1022,-77,-48,-128,80,22,green,arrow-stim ,107,617980,0.0-4.0-0.94 ,40408,,0,switch
40408,1,781,163,136,219,83,29,green,arrow-stim ,108,622276,0.0-4.0-0.95 ,40408,,0,repeat
40408,1,1073,-77,-115,-18,97,21,blue,arrow-stim ,109,626866,0.0-4.0-0.96 ,40408,,1,switch
40408,1,962,-77,-56,-133,77,35,green,arrow-stim ,110,631344,0.0-4.0-0.97 ,40408,,0,switch
40408,1,639,-77,-18,-108,90,28,blue,arrow-stim ,111,635499,0.0-4.0-0.98 ,40408,,1,switch
40408,1,1323,383,411,330,81,25,blue,arrow-stim ,112,640330,0.0-4.0-0.99 ,40408,,1,repeat
40408,1,641,383,324,417,93,25,blue,arrow-stim ,113,644484,0.0-4.0-0.100 ,40408,,1,repeat
40408,1,621,43,92,18,74,24,green,arrow-stim ,114,648624,0.0-4.0-0.101 ,40408,,0,switch
40408,1,804,-77,-55,-135,80,36,green,arrow-stim ,115,652940,0.0-4.0-0.102 ,40408,,0,repeat
40408,1,782,-77,-126,-49,77,21,green,arrow-stim ,116,657233,0.0-4.0-0.103 ,40408,,0,repeat
40408,1,474,43,20,97,77,31,green,arrow-stim ,117,661216,0.0-4.0-0.104 ,40408,,0,repeat
40408,1,463,-77,-40,-135,95,21,green,arrow-stim ,118,665195,0.0-4.0-0.105 ,40408,,0,repeat
40408,1,605,383,409,328,81,29,blue,arrow-stim ,119,669308,0.0-4.0-0.106 ,40408,,1,switch
40408,1,643,383,349,440,91,23,green,arrow-stim ,120,673471,0.0-4.0-0.107 ,40408,,0,switch
40408,0,693,-77,-22,-101,79,31,blue,arrow-stim ,121,677671,0.0-4.0-0.108 ,40408,,0,repeat
40408,1,637,-77,-111,-21,90,22,blue,arrow-stim ,122,681817,0.0-4.0-0.109 ,40408,,1,switch
40408,1,852,163,108,197,89,21,blue,arrow-stim ,123,686182,0.0-4.0-0.110 ,40408,,1,repeat
40408,1,926,83,104,41,63,21,blue,arrow-stim ,124,690620,0.0-4.0-0.111 ,40408,,1,repeat
40408,1,1023,83,120,25,95,21,blue,arrow-stim ,125,695153,0.0-4.0-0.112 ,40408,,1,repeat
40408,1,608,163,183,104,79,39,blue,arrow-stim ,126,699273,0.0-4.0-0.113 ,40408,,1,repeat
40408,1,586,-77,-132,-51,81,29,green,arrow-stim ,127,703374,0.0-4.0-0.114 ,40408,,0,switch
40408,1,732,163,140,212,72,26,green,arrow-stim ,128,707616,0.0-4.0-0.115 ,40408,,0,repeat
40408,1,587,163,140,221,81,35,green,arrow-stim ,129,711713,0.0-4.0-0.116 ,40408,,0,repeat
40408,1,558,-77,-101,-21,80,32,blue,arrow-stim ,130,715783,0.0-4.0-0.117 ,40408,,1,switch
40408,1,567,163,107,188,81,31,blue,arrow-stim ,131,719859,0.0-4.0-0.118 ,40408,,1,repeat
40408,1,578,163,118,186,68,22,blue,arrow-stim ,132,723944,0.0-4.0-0.119 ,40408,,1,repeat
40408,1,455,43,-14,76,90,24,blue,arrow-stim ,133,727911,0.0-4.0-0.120 ,40408,,1,repeat
40408,1,799,163,195,106,89,25,blue,arrow-stim ,134,732224,0.0-4.0-0.121 ,40408,,1,repeat
40408,0,525,383,436,357,79,27,green,arrow-stim ,135,736255,0.0-4.0-0.122 ,40408,,1,repeat
40408,1,1047,43,22,94,72,30,green,arrow-stim ,136,740814,0.0-4.0-0.123 ,40408,,0,switch
40408,1,993,383,439,347,92,20,green,arrow-stim ,137,745318,0.0-4.0-0.124 ,40408,,0,repeat
40408,1,959,-77,-50,-134,84,30,green,arrow-stim ,139,802440,0.0-6.0-0.0 ,40408,,0,repeat
40408,1,718,43,93,18,75,25,green,arrow-stim ,140,806671,0.0-6.0-0.1 ,40408,,0,repeat
40408,1,1155,-77,-104,-30,74,20,blue,arrow-stim ,141,811334,0.0-6.0-0.2 ,40408,,1,switch
40408,1,718,43,5,101,96,20,green,arrow-stim ,142,815568,0.0-6.0-0.3 ,40408,,0,switch
40408,1,635,43,78,-13,91,21,blue,arrow-stim ,143,819713,0.0-6.0-0.4 ,40408,,1,switch
40408,1,622,163,184,118,66,24,blue,arrow-stim ,144,823845,0.0-6.0-0.5 ,40408,,1,repeat
40408,1,1262,163,219,127,92,20,green,arrow-stim ,145,828618,0.0-6.0-0.6 ,40408,,0,switch
40408,1,924,43,66,-16,82,36,blue,arrow-stim ,146,833053,0.0-6.0-0.7 ,40408,,1,switch
40408,1,602,163,110,190,80,26,blue,arrow-stim ,147,837161,0.0-6.0-0.8 ,40408,,1,repeat
40408,1,686,-77,-24,-108,84,22,blue,arrow-stim ,148,841354,0.0-6.0-0.9 ,40408,,1,repeat
40408,1,538,-77,-26,-102,76,26,blue,arrow-stim ,149,845409,0.0-6.0-0.10 ,40408,,1,repeat
40408,1,1271,83,139,49,90,22,green,arrow-stim ,150,850192,0.0-6.0-0.11 ,40408,,0,switch
40408,1,562,-77,-44,-130,86,20,green,arrow-stim ,151,854266,0.0-6.0-0.12 ,40408,,0,repeat
40408,1,562,-77,-104,-24,80,26,blue,arrow-stim ,152,858344,0.0-6.0-0.13 ,40408,,1,switch
40408,1,672,383,417,329,88,20,blue,arrow-stim ,153,862526,0.0-6.0-0.14 ,40408,,1,repeat
40408,1,574,-77,-135,-43,92,24,green,arrow-stim ,154,866610,0.0-6.0-0.15 ,40408,,0,switch
40408,1,692,163,214,136,78,24,green,arrow-stim ,155,870813,0.0-6.0-0.16 ,40408,,0,repeat
40408,1,921,-77,-121,-57,64,24,green,arrow-stim ,156,875252,0.0-6.0-0.17 ,40408,,0,repeat
40408,1,711,383,328,414,86,24,blue,arrow-stim ,157,879473,0.0-6.0-0.18 ,40408,,1,switch
40408,1,742,83,36,106,70,24,blue,arrow-stim ,158,883727,0.0-6.0-0.19 ,40408,,1,repeat
40408,1,632,-77,-43,-136,93,25,green,arrow-stim ,159,887871,0.0-6.0-0.20 ,40408,,0,switch
40408,1,541,-77,-133,-57,76,36,green,arrow-stim ,160,891920,0.0-6.0-0.21 ,40408,,0,repeat
40408,1,531,-77,-44,-133,89,23,green,arrow-stim ,161,895963,0.0-6.0-0.22 ,40408,,0,repeat
40408,1,631,163,220,130,90,24,green,arrow-stim ,162,900099,0.0-6.0-0.23 ,40408,,0,repeat
40408,1,594,43,92,14,78,20,green,arrow-stim ,163,904205,0.0-6.0-0.24 ,40408,,0,repeat
40408,1,579,383,427,360,67,21,green,arrow-stim ,164,908300,0.0-6.0-0.25 ,40408,,0,repeat
40408,1,985,83,31,108,77,27,blue,arrow-stim ,165,912798,0.0-6.0-0.26 ,40408,,1,switch
40408,1,955,83,113,32,81,21,blue,arrow-stim ,166,917266,0.0-6.0-0.27 ,40408,,1,repeat
40408,1,655,-77,-45,-129,84,20,green,arrow-stim ,167,921435,0.0-6.0-0.28 ,40408,,0,switch
40408,1,1120,83,109,37,72,20,blue,arrow-stim ,168,926068,0.0-6.0-0.29 ,40408,,1,switch
40408,1,788,383,329,403,74,34,blue,arrow-stim ,169,930365,0.0-6.0-0.30 ,40408,,1,repeat
40408,1,806,383,324,415,91,27,blue,arrow-stim ,170,934683,0.0-6.0-0.31 ,40408,,1,repeat
40408,1,791,43,68,-13,81,31,blue,arrow-stim ,171,938987,0.0-6.0-0.32 ,40408,,1,repeat
40408,1,974,-77,-21,-98,77,35,blue,arrow-stim ,172,943474,0.0-6.0-0.33 ,40408,,1,repeat
40408,1,546,163,187,111,76,28,blue,arrow-stim ,173,947532,0.0-6.0-0.34 ,40408,,1,repeat
40408,1,767,383,440,359,81,33,green,arrow-stim ,174,951809,0.0-6.0-0.35 ,40408,,0,switch
40408,1,1044,83,107,26,81,33,blue,arrow-stim ,175,956367,0.0-6.0-0.36 ,40408,,1,switch
40408,1,645,163,220,131,89,25,green,arrow-stim ,176,960522,0.0-6.0-0.37 ,40408,,0,switch
40408,1,808,163,217,142,75,33,green,arrow-stim ,177,964838,0.0-6.0-0.38 ,40408,,0,repeat
40408,1,685,163,130,220,90,24,green,arrow-stim ,178,969032,0.0-6.0-0.39 ,40408,,0,repeat
40408,1,726,83,142,49,93,25,green,arrow-stim ,179,973269,0.0-6.0-0.40 ,40408,,0,repeat
40408,0,773,383,332,414,82,20,blue,arrow-stim ,180,977558,0.0-6.0-0.41 ,40408,,0,repeat
40408,1,805,383,441,347,94,22,green,arrow-stim ,181,981874,0.0-6.0-0.42 ,40408,,0,repeat
40408,1,650,383,428,363,65,25,green,arrow-stim ,182,986034,0.0-6.0-0.43 ,40408,,0,repeat
40408,1,830,383,438,356,82,28,green,arrow-stim ,183,990376,0.0-6.0-0.44 ,40408,,0,repeat
40408,1,1181,-77,-112,-21,91,21,blue,arrow-stim ,184,995070,0.0-6.0-0.45 ,40408,,1,switch
40408,1,683,383,346,442,96,22,green,arrow-stim ,185,999259,0.0-6.0-0.46 ,40408,,0,switch
40408,1,853,-77,-57,-118,61,21,green,arrow-stim ,186,1003621,0.0-6.0-0.47 ,40408,,0,repeat
40408,1,721,43,100,7,93,21,green,arrow-stim ,187,1007857,0.0-6.0-0.48 ,40408,,0,repeat
40408,1,842,163,107,184,77,35,blue,arrow-stim ,188,1012211,0.0-6.0-0.49 ,40408,,1,switch
40408,1,925,83,24,116,92,26,blue,arrow-stim ,189,1016643,0.0-6.0-0.50 ,40408,,1,repeat
40408,1,599,83,141,46,95,21,green,arrow-stim ,190,1020753,0.0-6.0-0.51 ,40408,,0,switch
40408,1,565,383,411,330,81,25,blue,arrow-stim ,191,1024829,0.0-6.0-0.52 ,40408,,1,switch
40408,1,578,-77,-106,-27,79,21,blue,arrow-stim ,192,1028919,0.0-6.0-0.53 ,40408,,1,repeat
40408,1,803,83,29,116,87,21,blue,arrow-stim ,193,1033233,0.0-6.0-0.54 ,40408,,1,repeat
40408,1,732,-77,-135,-49,86,30,green,arrow-stim ,194,1037476,0.0-6.0-0.55 ,40408,,0,switch
40408,1,681,83,36,109,73,21,blue,arrow-stim ,195,1041668,0.0-6.0-0.56 ,40408,,1,switch
40408,1,509,83,140,51,89,25,green,arrow-stim ,196,1045687,0.0-6.0-0.57 ,40408,,0,switch
40408,1,723,83,141,49,92,24,green,arrow-stim ,197,1049923,0.0-6.0-0.58 ,40408,,0,repeat
40408,1,723,-77,-107,-25,82,22,blue,arrow-stim ,198,1054159,0.0-6.0-0.59 ,40408,,1,switch
40408,1,659,43,-11,67,78,30,blue,arrow-stim ,199,1058325,0.0-6.0-0.60 ,40408,,1,repeat
40408,1,1040,163,130,216,86,20,green,arrow-stim ,200,1062875,0.0-6.0-0.61 ,40408,,0,switch
40408,1,512,383,405,324,81,37,blue,arrow-stim ,201,1066898,0.0-6.0-0.62 ,40408,,1,switch
40408,1,528,83,129,57,72,20,green,arrow-stim ,202,1070936,0.0-6.0-0.63 ,40408,,0,switch
40408,1,923,-77,-22,-109,87,23,blue,arrow-stim ,203,1075372,0.0-6.0-0.64 ,40408,,1,switch
40408,1,671,43,11,101,90,26,green,arrow-stim ,204,1079557,0.0-6.0-0.65 ,40408,,0,switch
40408,1,1206,-77,-40,-134,94,20,green,arrow-stim ,205,1084271,0.0-6.0-0.66 ,40408,,0,repeat
40408,1,792,83,120,24,96,22,blue,arrow-stim ,206,1088575,0.0-6.0-0.67 ,40408,,1,switch
40408,1,794,43,-16,81,97,21,blue,arrow-stim ,207,1092888,0.0-6.0-0.68 ,40408,,1,repeat
40408,1,1043,83,139,57,82,30,green,arrow-stim ,208,1097446,0.0-6.0-0.69 ,40408,,0,switch
40408,1,821,-77,-52,-122,70,20,green,arrow-stim ,209,1101780,0.0-6.0-0.70 ,40408,,0,repeat
40408,1,573,-77,-36,-98,62,20,blue,arrow-stim ,210,1105864,0.0-6.0-0.71 ,40408,,1,switch
40408,1,666,-77,-106,-19,87,29,blue,arrow-stim ,211,1110037,0.0-6.0-0.72 ,40408,,1,repeat
40408,1,480,43,12,101,89,27,green,arrow-stim ,212,1114025,0.0-6.0-0.73 ,40408,,0,switch
40408,1,507,83,113,32,81,21,blue,arrow-stim ,213,1118047,0.0-6.0-0.74 ,40408,,1,switch
40408,1,496,-77,-44,-134,90,24,green,arrow-stim ,214,1122051,0.0-6.0-0.75 ,40408,,0,switch
40408,1,575,163,183,119,64,24,blue,arrow-stim ,215,1126139,0.0-6.0-0.76 ,40408,,1,switch
40408,1,876,83,47,142,95,23,green,arrow-stim ,216,1130526,0.0-6.0-0.77 ,40408,,0,switch
40408,1,726,383,328,414,86,24,blue,arrow-stim ,217,1134763,0.0-6.0-0.78 ,40408,,1,switch
40408,1,518,-77,-99,-33,66,22,blue,arrow-stim ,218,1138791,0.0-6.0-0.79 ,40408,,1,repeat
40408,1,643,383,441,355,86,30,green,arrow-stim ,219,1142944,0.0-6.0-0.80 ,40408,,0,switch
40408,1,592,-77,-52,-128,76,26,green,arrow-stim ,220,1147049,0.0-6.0-0.81 ,40408,,0,repeat
40408,1,1036,-77,-133,-41,92,20,green,arrow-stim ,221,1151593,0.0-6.0-0.82 ,40408,,0,repeat
40408,1,583,83,49,141,92,24,green,arrow-stim ,222,1155683,0.0-6.0-0.83 ,40408,,0,repeat
40408,1,730,83,56,133,77,23,green,arrow-stim ,223,1159931,0.0-6.0-0.84 ,40408,,0,repeat
40408,1,808,43,-15,78,93,23,blue,arrow-stim ,224,1164250,0.0-6.0-0.85 ,40408,,1,switch
40408,1,562,-77,-54,-131,77,31,green,arrow-stim ,225,1168319,0.0-6.0-0.86 ,40408,,0,switch
40408,1,662,163,130,219,89,23,green,arrow-stim ,226,1172495,0.0-6.0-0.87 ,40408,,0,repeat
40408,1,493,-77,-28,-106,78,20,blue,arrow-stim ,227,1176498,0.0-6.0-0.88 ,40408,,1,switch
40408,1,514,-77,-135,-42,93,23,green,arrow-stim ,228,1180523,0.0-6.0-0.89 ,40408,,0,switch
40408,1,527,83,26,120,94,20,blue,arrow-stim ,229,1184565,0.0-6.0-0.90 ,40408,,1,switch
40408,1,620,-77,-135,-39,96,20,green,arrow-stim ,230,1188699,0.0-6.0-0.91 ,40408,,0,switch
40408,0,450,43,96,14,82,24,green,arrow-stim ,231,1192658,0.0-6.0-0.92 ,40408,,1,switch
40408,1,505,-77,-129,-48,81,23,green,arrow-stim ,232,1196671,0.0-6.0-0.93 ,40408,,0,switch
40408,1,442,43,17,91,74,22,green,arrow-stim ,233,1200626,0.0-6.0-0.94 ,40408,,0,repeat
40408,1,524,-77,-130,-50,80,26,green,arrow-stim ,234,1204661,0.0-6.0-0.95 ,40408,,0,repeat
40408,1,637,383,409,337,72,20,blue,arrow-stim ,235,1208810,0.0-6.0-0.96 ,40408,,1,switch
40408,1,693,43,16,99,83,29,green,arrow-stim ,236,1213016,0.0-6.0-0.97 ,40408,,0,switch
40408,1,547,-77,-100,-23,77,31,blue,arrow-stim ,237,1217074,0.0-6.0-0.98 ,40408,,1,switch
40408,1,501,83,31,108,77,27,blue,arrow-stim ,238,1221083,0.0-6.0-0.99 ,40408,,1,repeat
40408,1,609,43,7,101,94,22,green,arrow-stim ,239,1225204,0.0-6.0-0.100 ,40408,,0,switch
40408,1,545,163,220,141,79,35,green,arrow-stim ,240,1229263,0.0-6.0-0.101 ,40408,,0,repeat
40408,1,1827,43,77,-16,93,25,blue,arrow-stim ,241,1234600,0.0-6.0-0.102 ,40408,,1,switch
40408,1,861,-77,-18,-115,97,21,blue,arrow-stim ,242,1238972,0.0-6.0-0.103 ,40408,,1,repeat
40408,1,624,-77,-111,-19,92,24,blue,arrow-stim ,243,1243107,0.0-6.0-0.104 ,40408,,1,repeat
40408,1,517,43,81,-16,97,21,blue,arrow-stim ,244,1247140,0.0-6.0-0.105 ,40408,,1,repeat
40408,1,644,383,406,327,79,33,blue,arrow-stim ,245,1251300,0.0-6.0-0.106 ,40408,,1,repeat
40408,1,565,43,101,7,94,22,green,arrow-stim ,246,1255375,0.0-6.0-0.107 ,40408,,0,switch
40408,1,967,83,41,103,62,22,blue,arrow-stim ,247,1259851,0.0-6.0-0.108 ,40408,,1,switch
40408,1,658,383,438,354,84,26,green,arrow-stim ,248,1264022,0.0-6.0-0.109 ,40408,,0,switch
40408,1,808,163,222,137,85,33,green,arrow-stim ,249,1268340,0.0-6.0-0.110 ,40408,,0,repeat
40408,1,914,43,92,14,78,20,green,arrow-stim ,250,1272767,0.0-6.0-0.111 ,40408,,0,repeat
40408,1,836,-77,-129,-52,77,27,green,arrow-stim ,251,1277119,0.0-6.0-0.112 ,40408,,0,repeat
40408,1,846,83,49,138,89,21,green,arrow-stim ,252,1281475,0.0-6.0-0.113 ,40408,,0,repeat
40408,1,1180,-77,-43,-134,91,23,green,arrow-stim ,253,1286173,0.0-6.0-0.114 ,40408,,0,repeat
40408,1,644,383,350,440,90,24,green,arrow-stim ,254,1290330,0.0-6.0-0.115 ,40408,,0,repeat
40408,1,539,-77,-18,-99,81,37,blue,arrow-stim ,255,1294380,0.0-6.0-0.116 ,40408,,1,switch
40408,1,652,163,222,142,80,38,green,arrow-stim ,256,1298542,0.0-6.0-0.117 ,40408,,0,switch
40408,1,602,83,112,32,80,22,blue,arrow-stim ,257,1302659,0.0-6.0-0.118 ,40408,,1,switch
40408,1,638,-77,-19,-115,96,20,blue,arrow-stim ,258,1306808,0.0-6.0-0.119 ,40408,,1,repeat
40408,1,652,43,-15,75,90,26,blue,arrow-stim ,259,1310967,0.0-6.0-0.120 ,40408,,1,repeat
40408,1,511,-77,-34,-99,65,21,blue,arrow-stim ,260,1314988,0.0-6.0-0.121 ,40408,,1,repeat
40408,1,663,383,330,415,85,21,blue,arrow-stim ,261,1319165,0.0-6.0-0.122 ,40408,,1,repeat
40408,1,552,83,29,112,83,25,blue,arrow-stim ,262,1323223,0.0-6.0-0.123 ,40408,,1,repeat
40408,1,842,163,222,128,94,24,green,arrow-stim ,263,1327577,0.0-6.0-0.124 ,40408,,0,switch
40408,1,763,-77,-106,-27,79,21,blue,arrow-stim ,265,1717517,0.0-8.0-0.0 ,40408,,1,switch
40408,1,677,-77,-34,-97,63,23,blue,arrow-stim ,266,1721704,0.0-8.0-0.1 ,40408,,1,repeat
40408,1,777,383,332,412,80,22,blue,arrow-stim ,267,1725993,0.0-8.0-0.2 ,40408,,1,repeat
40408,1,549,83,136,53,83,23,green,arrow-stim ,268,1730052,0.0-8.0-0.3 ,40408,,0,switch
40408,1,475,-77,-135,-45,90,26,green,arrow-stim ,269,1734036,0.0-8.0-0.4 ,40408,,0,repeat
40408,1,566,163,112,193,81,21,blue,arrow-stim ,270,1738110,0.0-8.0-0.5 ,40408,,1,switch
40408,1,642,383,413,328,85,25,blue,arrow-stim ,271,1742262,0.0-8.0-0.6 ,40408,,1,repeat
40408,1,953,-77,-27,-105,78,22,blue,arrow-stim ,272,1746728,0.0-8.0-0.7 ,40408,,1,repeat
40408,1,546,383,331,411,80,24,blue,arrow-stim ,273,1750782,0.0-8.0-0.8 ,40408,,1,repeat
40408,1,711,43,76,-14,90,24,blue,arrow-stim ,274,1755003,0.0-8.0-0.9 ,40408,,1,repeat
40408,1,490,383,341,403,62,22,blue,arrow-stim ,275,1759002,0.0-8.0-0.10 ,40408,,1,repeat
40408,1,928,43,5,102,97,21,green,arrow-stim ,276,1763443,0.0-8.0-0.11 ,40408,,0,switch
40408,1,647,383,415,330,85,21,blue,arrow-stim ,277,1767600,0.0-8.0-0.12 ,40408,,1,switch
40408,1,524,-77,-100,-30,70,24,blue,arrow-stim ,278,1771636,0.0-8.0-0.13 ,40408,,1,repeat
40408,1,517,383,440,355,85,29,green,arrow-stim ,279,1775664,0.0-8.0-0.14 ,40408,,0,switch
40408,1,658,383,415,324,91,27,blue,arrow-stim ,280,1779828,0.0-8.0-0.15 ,40408,,1,switch
40408,1,667,43,67,-6,73,25,blue,arrow-stim ,281,1784011,0.0-8.0-0.16 ,40408,,1,repeat
40408,1,558,163,139,211,72,24,green,arrow-stim ,282,1788086,0.0-8.0-0.17 ,40408,,0,switch
40408,1,536,163,129,218,89,21,green,arrow-stim ,283,1792134,0.0-8.0-0.18 ,40408,,0,repeat
40408,1,674,83,24,113,89,29,blue,arrow-stim ,284,1796324,0.0-8.0-0.19 ,40408,,1,switch
40408,1,521,383,433,353,80,20,green,arrow-stim ,285,1800359,0.0-8.0-0.20 ,40408,,0,switch
40408,1,597,163,109,183,74,34,blue,arrow-stim ,286,1804470,0.0-8.0-0.21 ,40408,,1,switch
40408,0,680,-77,-129,-55,74,30,green,arrow-stim ,287,1808664,0.0-8.0-0.22 ,40408,,1,repeat
40408,1,933,163,190,105,85,31,blue,arrow-stim ,288,1813107,0.0-8.0-0.23 ,40408,,1,repeat
40408,1,533,83,51,137,86,22,green,arrow-stim ,289,1817151,0.0-8.0-0.24 ,40408,,0,switch
40408,1,1395,-77,-44,-135,91,25,green,arrow-stim ,290,1822061,0.0-8.0-0.25 ,40408,,0,repeat
40408,1,830,163,194,105,89,27,blue,arrow-stim ,291,1826399,0.0-8.0-0.26 ,40408,,1,switch
40408,1,706,43,65,-4,69,25,blue,arrow-stim ,292,1830612,0.0-8.0-0.27 ,40408,,1,repeat
40408,1,738,43,22,97,75,33,green,arrow-stim ,293,1834858,0.0-8.0-0.28 ,40408,,0,switch
40408,1,702,43,-3,64,67,25,blue,arrow-stim ,294,1839076,0.0-8.0-0.29 ,40408,,1,switch
40408,1,1221,83,28,116,88,22,blue,arrow-stim ,295,1843814,0.0-8.0-0.30 ,40408,,1,repeat
40408,1,683,83,25,104,79,37,blue,arrow-stim ,296,1848012,0.0-8.0-0.31 ,40408,,1,repeat
40408,1,798,83,51,135,84,20,green,arrow-stim ,297,1852325,0.0-8.0-0.32 ,40408,,0,switch
40408,1,747,43,98,8,90,20,green,arrow-stim ,298,1856586,0.0-8.0-0.33 ,40408,,0,repeat
40408,1,993,83,27,116,89,23,blue,arrow-stim ,299,1861093,0.0-8.0-0.34 ,40408,,1,switch
40408,1,690,83,114,24,90,28,blue,arrow-stim ,300,1865293,0.0-8.0-0.35 ,40408,,1,repeat
40408,1,601,383,349,442,93,25,green,arrow-stim ,301,1869406,0.0-8.0-0.36 ,40408,,0,switch
40408,1,997,83,131,55,76,20,green,arrow-stim ,302,1873913,0.0-8.0-0.37 ,40408,,0,repeat
40408,1,795,383,403,326,77,37,blue,arrow-stim ,303,1878219,0.0-8.0-0.38 ,40408,,1,switch
40408,1,2085,163,107,184,77,35,blue,arrow-stim ,304,1883814,0.0-8.0-0.39 ,40408,,1,repeat
40408,1,1277,-77,-39,-135,96,20,green,arrow-stim ,305,1888603,0.0-8.0-0.40 ,40408,,0,switch
40408,1,905,43,15,91,76,20,green,arrow-stim ,306,1893021,0.0-8.0-0.41 ,40408,,0,repeat
40408,1,629,383,346,441,95,21,green,arrow-stim ,307,1897163,0.0-8.0-0.42 ,40408,,0,repeat
40408,1,643,83,45,141,96,20,green,arrow-stim ,308,1901314,0.0-8.0-0.43 ,40408,,0,repeat
40408,1,680,-77,-42,-134,92,22,green,arrow-stim ,309,1905510,0.0-8.0-0.44 ,40408,,0,repeat
40408,1,648,383,436,354,82,24,green,arrow-stim ,310,1909666,0.0-8.0-0.45 ,40408,,0,repeat
40408,1,1024,163,221,127,94,22,green,arrow-stim ,311,1914201,0.0-8.0-0.46 ,40408,,0,repeat
40408,1,586,43,64,-15,79,37,blue,arrow-stim ,312,1918298,0.0-8.0-0.47 ,40408,,1,switch
40408,1,540,43,23,84,61,21,green,arrow-stim ,313,1922348,0.0-8.0-0.48 ,40408,,0,switch
40408,1,657,83,32,106,74,28,blue,arrow-stim ,314,1926520,0.0-8.0-0.49 ,40408,,1,switch
40408,1,629,383,411,325,86,30,blue,arrow-stim ,315,1930662,0.0-8.0-0.50 ,40408,,1,repeat
40408,1,648,43,100,7,93,21,green,arrow-stim ,316,1934822,0.0-8.0-0.51 ,40408,,0,switch
40408,1,601,-77,-105,-21,84,28,blue,arrow-stim ,317,1938933,0.0-8.0-0.52 ,40408,,1,switch
40408,1,1038,163,127,222,95,23,green,arrow-stim ,318,1943483,0.0-8.0-0.53 ,40408,,0,switch
40408,1,677,383,345,441,96,20,green,arrow-stim ,319,1947669,0.0-8.0-0.54 ,40408,,0,repeat
40408,1,689,43,87,22,65,23,green,arrow-stim ,320,1951870,0.0-8.0-0.55 ,40408,,0,repeat
40408,0,1843,163,141,206,65,21,green,arrow-stim ,321,1957223,0.0-8.0-0.56 ,40408,,1,switch
40408,1,788,-77,-98,-35,63,21,blue,arrow-stim ,322,1961524,0.0-8.0-0.57 ,40408,,1,repeat
40408,1,724,383,337,403,66,26,blue,arrow-stim ,323,1965753,0.0-8.0-0.58 ,40408,,1,repeat
40408,1,729,-77,-105,-23,82,26,blue,arrow-stim ,324,1969996,0.0-8.0-0.59 ,40408,,1,repeat
40408,1,627,-77,-18,-115,97,21,blue,arrow-stim ,325,1974136,0.0-8.0-0.60 ,40408,,1,repeat
40408,1,624,-77,-134,-40,94,20,green,arrow-stim ,326,1978275,0.0-8.0-0.61 ,40408,,0,switch
40408,1,806,43,-13,73,86,26,blue,arrow-stim ,327,1982594,0.0-8.0-0.62 ,40408,,1,switch
40408,1,670,-77,-104,-27,77,23,blue,arrow-stim ,328,1986776,0.0-8.0-0.63 ,40408,,1,repeat
40408,1,646,383,438,356,82,28,green,arrow-stim ,329,1990933,0.0-8.0-0.64 ,40408,,0,switch
40408,1,735,163,135,216,81,25,green,arrow-stim ,330,1995180,0.0-8.0-0.65 ,40408,,0,repeat
40408,1,684,163,215,140,75,29,green,arrow-stim ,331,1999378,0.0-8.0-0.66 ,40408,,0,repeat
40408,1,731,-77,-46,-133,87,25,green,arrow-stim ,332,2003621,0.0-8.0-0.67 ,40408,,0,repeat
40408,1,804,83,105,33,72,28,blue,arrow-stim ,333,2007939,0.0-8.0-0.68 ,40408,,1,switch
40408,1,596,83,134,55,79,23,green,arrow-stim ,334,2012047,0.0-8.0-0.69 ,40408,,0,switch
40408,1,591,163,110,195,85,21,blue,arrow-stim ,335,2016150,0.0-8.0-0.70 ,40408,,1,switch
40408,1,711,43,70,-12,82,28,blue,arrow-stim ,336,2020372,0.0-8.0-0.71 ,40408,,1,repeat
40408,1,524,83,50,139,89,23,green,arrow-stim ,337,2024407,0.0-8.0-0.72 ,40408,,0,switch
40408,1,640,43,-16,78,94,24,blue,arrow-stim ,338,2028562,0.0-8.0-0.73 ,40408,,1,switch
40408,1,852,83,130,60,70,24,green,arrow-stim ,339,2032923,0.0-8.0-0.74 ,40408,,0,switch
40408,1,917,83,137,51,86,22,green,arrow-stim ,340,2037349,0.0-8.0-0.75 ,40408,,0,repeat
40408,1,1102,163,129,218,89,21,green,arrow-stim ,341,2041968,0.0-8.0-0.76 ,40408,,0,repeat
40408,1,729,163,219,135,84,28,green,arrow-stim ,342,2046212,0.0-8.0-0.77 ,40408,,0,repeat
40408,1,710,-77,-102,-18,84,34,blue,arrow-stim ,343,2050436,0.0-8.0-0.78 ,40408,,1,switch
40408,1,826,83,29,103,74,34,blue,arrow-stim ,344,2054773,0.0-8.0-0.79 ,40408,,1,repeat
40408,1,1323,-77,-43,-133,90,22,green,arrow-stim ,345,2059605,0.0-8.0-0.80 ,40408,,0,switch
40408,1,776,383,404,327,77,35,blue,arrow-stim ,346,2063895,0.0-8.0-0.81 ,40408,,1,switch
40408,1,624,-77,-23,-106,83,25,blue,arrow-stim ,347,2068031,0.0-8.0-0.82 ,40408,,1,repeat
40408,1,831,83,118,26,92,22,blue,arrow-stim ,348,2072379,0.0-8.0-0.83 ,40408,,1,repeat
40408,1,714,163,186,104,82,36,blue,arrow-stim ,349,2076605,0.0-8.0-0.84 ,40408,,1,repeat
40408,1,586,163,106,192,86,28,blue,arrow-stim ,350,2080709,0.0-8.0-0.85 ,40408,,1,repeat
40408,1,548,83,111,24,87,31,blue,arrow-stim ,351,2084775,0.0-8.0-0.86 ,40408,,1,repeat
40408,1,610,-77,-22,-101,79,31,blue,arrow-stim ,352,2088896,0.0-8.0-0.87 ,40408,,1,repeat
40408,1,589,163,105,197,92,24,blue,arrow-stim ,353,2093000,0.0-8.0-0.88 ,40408,,1,repeat
40408,1,929,383,440,350,90,24,green,arrow-stim ,354,2097436,0.0-8.0-0.89 ,40408,,0,switch
40408,1,631,43,12,94,82,20,green,arrow-stim ,355,2101575,0.0-8.0-0.90 ,40408,,0,repeat
40408,1,917,-77,-25,-106,81,23,blue,arrow-stim ,356,2106007,0.0-8.0-0.91 ,40408,,1,switch
40408,1,526,83,103,38,65,25,blue,arrow-stim ,357,2110040,0.0-8.0-0.92 ,40408,,1,repeat
40408,1,596,43,-8,63,71,31,blue,arrow-stim ,358,2114147,0.0-8.0-0.93 ,40408,,1,repeat
40408,1,688,43,-12,76,88,22,blue,arrow-stim ,359,2118345,0.0-8.0-0.94 ,40408,,1,repeat
40408,1,512,43,79,-16,95,23,blue,arrow-stim ,360,2122370,0.0-8.0-0.95 ,40408,,1,repeat
40408,1,977,83,25,117,92,24,blue,arrow-stim ,361,2126861,0.0-8.0-0.96 ,40408,,1,repeat
40408,1,590,83,62,135,73,31,green,arrow-stim ,362,2130961,0.0-8.0-0.97 ,40408,,0,switch
40408,1,814,43,100,8,92,22,green,arrow-stim ,363,2135287,0.0-8.0-0.98 ,40408,,0,repeat
40408,1,701,163,198,106,92,22,blue,arrow-stim ,364,2139498,0.0-8.0-0.99 ,40408,,1,switch
40408,1,800,383,332,407,75,27,blue,arrow-stim ,365,2143809,0.0-8.0-0.100 ,40408,,1,repeat
40408,1,624,43,88,21,67,23,green,arrow-stim ,366,2147948,0.0-8.0-0.101 ,40408,,0,switch
40408,1,707,163,142,219,77,35,green,arrow-stim ,367,2152166,0.0-8.0-0.102 ,40408,,0,repeat
40408,1,653,383,352,437,85,23,green,arrow-stim ,368,2156331,0.0-8.0-0.103 ,40408,,0,repeat
40408,1,539,43,21,94,73,29,green,arrow-stim ,369,2160382,0.0-8.0-0.104 ,40408,,0,repeat
40408,1,1053,-77,-103,-27,76,24,blue,arrow-stim ,370,2164948,0.0-8.0-0.105 ,40408,,1,switch
40408,1,626,163,113,184,71,29,blue,arrow-stim ,371,2169083,0.0-8.0-0.106 ,40408,,1,repeat
40408,1,718,163,216,130,86,20,green,arrow-stim ,372,2173314,0.0-8.0-0.107 ,40408,,0,switch
40408,1,965,163,219,128,91,21,green,arrow-stim ,373,2177787,0.0-8.0-0.108 ,40408,,0,repeat
40408,1,518,83,134,53,81,21,green,arrow-stim ,374,2181817,0.0-8.0-0.109 ,40408,,0,repeat
40408,1,625,43,15,92,77,21,green,arrow-stim ,375,2185955,0.0-8.0-0.110 ,40408,,0,repeat
40408,1,580,-77,-109,-23,86,22,blue,arrow-stim ,376,2190044,0.0-8.0-0.111 ,40408,,1,switch
40408,1,899,83,131,63,68,28,green,arrow-stim ,377,2194454,0.0-8.0-0.112 ,40408,,0,switch
40408,1,874,83,113,31,82,22,blue,arrow-stim ,378,2198842,0.0-8.0-0.113 ,40408,,1,switch
40408,1,563,43,66,-11,77,31,blue,arrow-stim ,379,2202916,0.0-8.0-0.114 ,40408,,1,repeat
40408,1,475,-77,-20,-104,84,30,blue,arrow-stim ,380,2206901,0.0-8.0-0.115 ,40408,,1,repeat
40408,1,470,43,94,12,82,20,green,arrow-stim ,381,2210879,0.0-8.0-0.116 ,40408,,0,switch
40408,1,502,43,97,15,82,26,green,arrow-stim ,382,2214892,0.0-8.0-0.117 ,40408,,0,repeat
40408,1,591,83,128,61,67,23,green,arrow-stim ,383,2218992,0.0-8.0-0.118 ,40408,,0,repeat
40408,1,571,383,435,356,79,25,green,arrow-stim ,384,2223074,0.0-8.0-0.119 ,40408,,0,repeat
40408,1,420,383,361,440,79,35,green,arrow-stim ,385,2227008,0.0-8.0-0.120 ,40408,,0,repeat
40408,1,555,383,354,435,81,23,green,arrow-stim ,386,2231073,0.0-8.0-0.121 ,40408,,0,repeat
40408,1,538,-77,-114,-20,94,20,blue,arrow-stim ,387,2235120,0.0-8.0-0.122 ,40408,,1,switch
40408,1,886,163,111,189,78,26,blue,arrow-stim ,388,2239514,0.0-8.0-0.123 ,40408,,1,repeat
40408,1,618,43,73,-9,82,22,blue,arrow-stim ,389,2243641,0.0-8.0-0.124 ,40408,,1,repeat
40408,1,691,383,418,325,93,23,blue,arrow-stim ,391,2374155,0.0-10.0-0.0 ,40408,,1,repeat
40408,1,526,43,80,-14,94,20,blue,arrow-stim ,392,2378190,0.0-10.0-0.1 ,40408,,1,repeat
40408,1,662,163,112,183,71,31,blue,arrow-stim ,393,2382366,0.0-10.0-0.2 ,40408,,1,repeat
40408,1,727,163,197,108,89,21,blue,arrow-stim ,394,2386607,0.0-10.0-0.3 ,40408,,1,repeat
40408,1,811,83,54,139,85,27,green,arrow-stim ,395,2390930,0.0-10.0-0.4 ,40408,,0,switch
40408,1,572,383,324,415,91,27,blue,arrow-stim ,396,2395018,0.0-10.0-0.5 ,40408,,1,switch
40408,1,566,-77,-25,-100,75,29,blue,arrow-stim ,397,2399100,0.0-10.0-0.6 ,40408,,1,repeat
40408,1,720,163,141,206,65,21,green,arrow-stim ,398,2403333,0.0-10.0-0.7 ,40408,,0,switch
40408,1,589,83,113,32,81,21,blue,arrow-stim ,399,2407428,0.0-10.0-0.8 ,40408,,1,switch
40408,1,781,-77,-98,-23,75,33,blue,arrow-stim ,400,2411726,0.0-10.0-0.9 ,40408,,1,repeat
40408,1,531,83,141,62,79,37,green,arrow-stim ,401,2415763,0.0-10.0-0.10 ,40408,,0,switch
40408,1,815,83,109,31,78,26,blue,arrow-stim ,402,2420093,0.0-10.0-0.11 ,40408,,1,switch
40408,1,782,163,220,126,94,20,green,arrow-stim ,403,2424383,0.0-10.0-0.12 ,40408,,0,switch
40408,1,764,383,325,405,80,36,blue,arrow-stim ,404,2428657,0.0-10.0-0.13 ,40408,,1,switch
40408,1,612,43,72,-12,84,26,blue,arrow-stim ,405,2432781,0.0-10.0-0.14 ,40408,,1,repeat
40408,1,618,163,196,105,91,25,blue,arrow-stim ,406,2436912,0.0-10.0-0.15 ,40408,,1,repeat
40408,1,674,83,24,121,97,21,blue,arrow-stim ,407,2441094,0.0-10.0-0.16 ,40408,,1,repeat
40408,1,699,83,104,28,76,34,blue,arrow-stim ,408,2445304,0.0-10.0-0.17 ,40408,,1,repeat
40408,0,737,383,442,345,97,21,green,arrow-stim ,409,2449551,0.0-10.0-0.18 ,40408,,1,repeat
40408,1,643,83,59,139,80,32,green,arrow-stim ,410,2453703,0.0-10.0-0.19 ,40408,,0,switch
40408,1,798,163,105,199,94,22,blue,arrow-stim ,411,2458013,0.0-10.0-0.20 ,40408,,1,switch
40408,1,530,43,100,21,79,35,green,arrow-stim ,412,2462055,0.0-10.0-0.21 ,40408,,0,switch
40408,1,598,-77,-57,-128,71,31,green,arrow-stim ,413,2466169,0.0-10.0-0.22 ,40408,,0,repeat
40408,1,586,-77,-132,-57,75,35,green,arrow-stim ,414,2470264,0.0-10.0-0.23 ,40408,,0,repeat
40408,1,573,163,195,111,84,20,blue,arrow-stim ,415,2474354,0.0-10.0-0.24 ,40408,,1,switch
40408,1,700,-77,-21,-111,90,22,blue,arrow-stim ,416,2478569,0.0-10.0-0.25 ,40408,,1,repeat
40408,1,763,383,403,324,79,39,blue,arrow-stim ,417,2482845,0.0-10.0-0.26 ,40408,,1,repeat
40408,1,1009,83,114,29,85,23,blue,arrow-stim ,418,2487368,0.0-10.0-0.27 ,40408,,1,repeat
40408,1,1111,83,108,28,80,30,blue,arrow-stim ,419,2491990,0.0-10.0-0.28 ,40408,,1,repeat
40408,1,670,163,105,198,93,23,blue,arrow-stim ,420,2496175,0.0-10.0-0.29 ,40408,,1,repeat
40408,1,624,-77,-107,-21,86,26,blue,arrow-stim ,421,2500314,0.0-10.0-0.30 ,40408,,1,repeat
40408,1,1387,163,126,221,95,21,green,arrow-stim ,422,2505214,0.0-10.0-0.31 ,40408,,0,switch
40408,1,928,83,112,26,86,28,blue,arrow-stim ,423,2509655,0.0-10.0-0.32 ,40408,,1,switch
40408,1,779,163,128,219,91,21,green,arrow-stim ,424,2513944,0.0-10.0-0.33 ,40408,,0,switch
40408,1,658,383,333,407,74,26,blue,arrow-stim ,425,2518115,0.0-10.0-0.34 ,40408,,1,switch
40408,1,876,163,119,186,67,21,blue,arrow-stim ,426,2522508,0.0-10.0-0.35 ,40408,,1,repeat
40408,1,670,83,119,24,95,23,blue,arrow-stim ,427,2526693,0.0-10.0-0.36 ,40408,,1,repeat
40408,1,857,163,127,222,95,23,green,arrow-stim ,428,2531061,0.0-10.0-0.37 ,40408,,0,switch
40408,1,561,83,51,142,91,27,green,arrow-stim ,429,2535132,0.0-10.0-0.38 ,40408,,0,repeat
40408,1,627,163,143,206,63,23,green,arrow-stim ,430,2539268,0.0-10.0-0.39 ,40408,,0,repeat
40408,1,561,163,106,195,89,25,blue,arrow-stim ,431,2543336,0.0-10.0-0.40 ,40408,,1,switch
40408,1,735,383,345,442,97,21,green,arrow-stim ,432,2547580,0.0-10.0-0.41 ,40408,,0,switch
40408,1,720,43,67,-14,81,33,blue,arrow-stim ,433,2551814,0.0-10.0-0.42 ,40408,,1,switch
40408,1,973,-77,-136,-51,85,33,green,arrow-stim ,434,2556301,0.0-10.0-0.43 ,40408,,0,switch
40408,1,614,43,14,93,79,21,green,arrow-stim ,435,2560430,0.0-10.0-0.44 ,40408,,0,repeat
40408,1,536,43,100,10,90,24,green,arrow-stim ,436,2564478,0.0-10.0-0.45 ,40408,,0,repeat
40408,1,839,83,28,118,90,20,blue,arrow-stim ,437,2568826,0.0-10.0-0.46 ,40408,,1,switch
40408,1,656,83,32,113,81,21,blue,arrow-stim ,438,2572991,0.0-10.0-0.47 ,40408,,1,repeat
40408,1,743,83,28,118,90,20,blue,arrow-stim ,439,2577245,0.0-10.0-0.48 ,40408,,1,repeat
40408,1,875,-77,-41,-133,92,20,green,arrow-stim ,440,2581632,0.0-10.0-0.49 ,40408,,0,switch
40408,1,588,83,139,63,76,36,green,arrow-stim ,441,2585732,0.0-10.0-0.50 ,40408,,0,repeat
40408,1,776,83,38,107,69,21,blue,arrow-stim ,442,2590020,0.0-10.0-0.51 ,40408,,1,switch
40408,1,1132,383,409,332,77,25,blue,arrow-stim ,443,2594666,0.0-10.0-0.52 ,40408,,1,repeat
40408,1,622,-77,-115,-18,97,21,blue,arrow-stim ,444,2598798,0.0-10.0-0.53 ,40408,,1,repeat
40408,1,555,383,437,362,75,33,green,arrow-stim ,445,2602863,0.0-10.0-0.54 ,40408,,0,switch
40408,1,753,163,191,108,83,27,blue,arrow-stim ,446,2607134,0.0-10.0-0.55 ,40408,,1,switch
40408,1,776,163,219,128,91,21,green,arrow-stim ,447,2611421,0.0-10.0-0.56 ,40408,,0,switch
40408,1,607,-77,-18,-115,97,21,blue,arrow-stim ,448,2615538,0.0-10.0-0.57 ,40408,,1,switch
40408,1,518,163,104,198,94,24,blue,arrow-stim ,449,2619566,0.0-10.0-0.58 ,40408,,1,repeat
40408,1,653,-77,-21,-113,92,20,blue,arrow-stim ,450,2623733,0.0-10.0-0.59 ,40408,,1,repeat
40408,1,645,-77,-98,-26,72,30,blue,arrow-stim ,451,2627891,0.0-10.0-0.60 ,40408,,1,repeat
40408,1,757,163,115,184,69,27,blue,arrow-stim ,452,2632162,0.0-10.0-0.61 ,40408,,1,repeat
40408,1,621,-77,-18,-111,93,25,blue,arrow-stim ,453,2636293,0.0-10.0-0.62 ,40408,,1,repeat
40408,1,543,-77,-39,-135,96,20,green,arrow-stim ,454,2640350,0.0-10.0-0.63 ,40408,,0,switch
40408,1,597,43,-12,74,86,24,blue,arrow-stim ,455,2644462,0.0-10.0-0.64 ,40408,,1,switch
40408,1,467,43,67,-7,74,26,blue,arrow-stim ,456,2648443,0.0-10.0-0.65 ,40408,,1,repeat
40408,1,484,43,-13,76,89,23,blue,arrow-stim ,457,2652442,0.0-10.0-0.66 ,40408,,1,repeat
40408,1,578,-77,-134,-50,84,30,green,arrow-stim ,458,2656537,0.0-10.0-0.67 ,40408,,0,switch
40408,1,560,43,91,16,75,21,green,arrow-stim ,459,2660610,0.0-10.0-0.68 ,40408,,0,repeat
40408,0,722,383,355,434,79,23,green,arrow-stim ,460,2664847,0.0-10.0-0.69 ,40408,,1,switch
40408,1,583,383,346,440,94,20,green,arrow-stim ,461,2668945,0.0-10.0-0.70 ,40408,,0,switch
40408,1,565,43,100,18,82,32,green,arrow-stim ,462,2673021,0.0-10.0-0.71 ,40408,,0,repeat
40408,1,523,-77,-55,-128,73,29,green,arrow-stim ,463,2677057,0.0-10.0-0.72 ,40408,,0,repeat
40408,1,611,83,118,24,94,24,blue,arrow-stim ,464,2681180,0.0-10.0-0.73 ,40408,,1,switch
40408,1,579,43,95,12,83,21,green,arrow-stim ,465,2685268,0.0-10.0-0.74 ,40408,,0,switch
40408,1,563,43,101,7,94,22,green,arrow-stim ,466,2689344,0.0-10.0-0.75 ,40408,,0,repeat
40408,1,573,383,413,324,89,29,blue,arrow-stim ,467,2693427,0.0-10.0-0.76 ,40408,,1,switch
40408,1,733,383,325,413,88,28,blue,arrow-stim ,468,2697670,0.0-10.0-0.77 ,40408,,1,repeat
40408,1,552,-77,-22,-111,89,21,blue,arrow-stim ,469,2701734,0.0-10.0-0.78 ,40408,,1,repeat
40408,1,594,83,24,120,96,22,blue,arrow-stim ,470,2705837,0.0-10.0-0.79 ,40408,,1,repeat
40408,1,722,-77,-40,-135,95,21,green,arrow-stim ,471,2710072,0.0-10.0-0.80 ,40408,,0,switch
40408,1,515,163,197,105,92,24,blue,arrow-stim ,472,2714098,0.0-10.0-0.81 ,40408,,1,switch
40408,1,915,-77,-20,-107,87,27,blue,arrow-stim ,473,2718519,0.0-10.0-0.82 ,40408,,1,repeat
40408,1,588,83,55,136,81,25,green,arrow-stim ,474,2722622,0.0-10.0-0.83 ,40408,,0,switch
40408,1,1272,43,77,-15,92,24,blue,arrow-stim ,475,2727406,0.0-10.0-0.84 ,40408,,1,switch
40408,1,578,43,8,102,94,24,green,arrow-stim ,476,2731497,0.0-10.0-0.85 ,40408,,0,switch
40408,1,703,383,324,418,94,24,blue,arrow-stim ,477,2735715,0.0-10.0-0.86 ,40408,,1,switch
40408,1,939,163,193,109,84,24,blue,arrow-stim ,478,2740161,0.0-10.0-0.87 ,40408,,1,repeat
40408,1,917,163,187,108,79,31,blue,arrow-stim ,479,2744593,0.0-10.0-0.88 ,40408,,1,repeat
40408,1,797,-77,-25,-101,76,28,blue,arrow-stim ,480,2748903,0.0-10.0-0.89 ,40408,,1,repeat
40408,1,575,83,110,27,83,29,blue,arrow-stim ,481,2752988,0.0-10.0-0.90 ,40408,,1,repeat
40408,1,556,43,67,-4,71,23,blue,arrow-stim ,482,2757050,0.0-10.0-0.91 ,40408,,1,repeat
40408,1,597,383,324,420,96,22,blue,arrow-stim ,483,2761159,0.0-10.0-0.92 ,40408,,1,repeat
40408,1,689,383,437,351,86,22,green,arrow-stim ,484,2765357,0.0-10.0-0.93 ,40408,,0,switch
40408,1,994,163,200,106,94,20,blue,arrow-stim ,485,2769862,0.0-10.0-0.94 ,40408,,1,switch
40408,1,710,83,25,112,87,29,blue,arrow-stim ,486,2774087,0.0-10.0-0.95 ,40408,,1,repeat
40408,1,591,163,193,105,88,28,blue,arrow-stim ,487,2778190,0.0-10.0-0.96 ,40408,,1,repeat
40408,1,615,-77,-134,-40,94,20,green,arrow-stim ,488,2782316,0.0-10.0-0.97 ,40408,,0,switch
40408,1,616,83,105,31,74,30,blue,arrow-stim ,489,2786450,0.0-10.0-0.98 ,40408,,1,switch
40408,1,975,383,417,325,92,24,blue,arrow-stim ,490,2790934,0.0-10.0-0.99 ,40408,,1,repeat
40408,0,743,43,12,98,86,24,green,arrow-stim ,491,2795195,0.0-10.0-0.100 ,40408,,1,repeat
40408,1,943,-77,-126,-51,75,23,green,arrow-stim ,492,2799648,0.0-10.0-0.101 ,40408,,0,switch
40408,1,654,43,89,22,67,25,green,arrow-stim ,493,2803816,0.0-10.0-0.102 ,40408,,0,repeat
40408,1,984,383,324,418,94,24,blue,arrow-stim ,494,2808317,0.0-10.0-0.103 ,40408,,1,switch
40408,1,999,43,95,11,84,20,green,arrow-stim ,495,2812828,0.0-10.0-0.104 ,40408,,0,switch
40408,1,675,83,116,28,88,22,blue,arrow-stim ,496,2817014,0.0-10.0-0.105 ,40408,,1,switch
40408,1,701,383,407,335,72,24,blue,arrow-stim ,497,2821223,0.0-10.0-0.106 ,40408,,1,repeat
40408,1,616,43,74,-11,85,23,blue,arrow-stim ,498,2825352,0.0-10.0-0.107 ,40408,,1,repeat
40408,0,577,163,219,130,89,23,green,arrow-stim ,499,2829445,0.0-10.0-0.108 ,40408,,1,repeat
40408,1,1173,43,15,92,77,21,green,arrow-stim ,500,2834136,0.0-10.0-0.109 ,40408,,0,switch
40408,1,629,163,220,131,89,25,green,arrow-stim ,501,2838274,0.0-10.0-0.110 ,40408,,0,repeat
40408,1,563,-77,-52,-131,79,29,green,arrow-stim ,502,2842353,0.0-10.0-0.111 ,40408,,0,repeat
40408,1,616,163,212,136,76,22,green,arrow-stim ,503,2846482,0.0-10.0-0.112 ,40408,,0,repeat
40408,1,513,383,419,327,92,20,blue,arrow-stim ,504,2850507,0.0-10.0-0.113 ,40408,,1,switch
40408,1,653,43,13,97,84,24,green,arrow-stim ,505,2854668,0.0-10.0-0.114 ,40408,,0,switch
40408,1,1209,383,429,362,67,25,green,arrow-stim ,506,2859389,0.0-10.0-0.115 ,40408,,0,repeat
40408,1,714,163,111,188,77,27,blue,arrow-stim ,507,2863608,0.0-10.0-0.116 ,40408,,1,switch
40408,1,821,383,438,349,89,21,green,arrow-stim ,508,2867935,0.0-10.0-0.117 ,40408,,0,switch
40408,1,557,-77,-56,-125,69,27,green,arrow-stim ,509,2872006,0.0-10.0-0.118 ,40408,,0,repeat
40408,1,567,43,15,98,83,27,green,arrow-stim ,510,2876087,0.0-10.0-0.119 ,40408,,0,repeat
40408,1,440,83,126,61,65,21,green,arrow-stim ,511,2880040,0.0-10.0-0.120 ,40408,,0,repeat
40408,1,437,43,19,97,78,30,green,arrow-stim ,512,2883989,0.0-10.0-0.121 ,40408,,0,repeat
40408,1,538,83,60,131,71,25,green,arrow-stim ,513,2888040,0.0-10.0-0.122 ,40408,,0,repeat
40408,1,989,43,99,11,88,24,green,arrow-stim ,514,2892542,0.0-10.0-0.123 ,40408,,0,repeat
40408,1,721,383,325,420,95,21,blue,arrow-stim ,515,2896773,0.0-10.0-0.124 ,40408,,1,switch
41014,1,3135,-80,-56,-136,80,32,blue,arrow-stim ,13,350692,0.0-4.0-0.0 ,41014,,1,switch
41014,1,3521,80,102,34,68,24,green,arrow-stim ,14,357735,0.0-4.0-0.1 ,41014,,0,switch
41014,0,1981,-80,-27,-113,86,20,green,arrow-stim ,15,363241,0.0-4.0-0.2 ,41014,,1,switch
41014,0,3801,380,431,360,71,31,blue,arrow-stim ,16,370564,0.0-4.0-0.3 ,41014,,0,switch
41014,1,1913,380,328,404,76,28,green,arrow-stim ,17,375994,0.0-4.0-0.4 ,41014,,0,repeat
41014,1,2115,380,344,438,94,22,blue,arrow-stim ,18,381639,0.0-4.0-0.5 ,41014,,1,switch
41014,1,1777,40,-18,75,93,23,green,arrow-stim ,19,386951,0.0-4.0-0.6 ,41014,,0,switch
41014,1,2317,80,24,116,92,20,green,arrow-stim ,20,392797,0.0-4.0-0.7 ,41014,,0,repeat
41014,1,826,80,107,32,75,21,green,arrow-stim ,21,397167,0.0-4.0-0.8 ,41014,,0,repeat
41014,1,1400,80,47,138,91,25,blue,arrow-stim ,22,402080,0.0-4.0-0.9 ,41014,,1,switch
41014,1,1111,-80,-136,-46,90,22,blue,arrow-stim ,23,406734,0.0-4.0-0.10 ,41014,,1,repeat
41014,1,857,40,8,93,85,21,blue,arrow-stim ,24,411116,0.0-4.0-0.11 ,41014,,1,repeat
41014,1,1300,80,25,102,77,33,green,arrow-stim ,25,415941,0.0-4.0-0.12 ,41014,,0,switch
41014,1,815,80,134,57,77,31,blue,arrow-stim ,26,420279,0.0-4.0-0.13 ,41014,,1,switch
41014,1,833,-80,-55,-128,73,23,blue,arrow-stim ,27,424635,0.0-4.0-0.14 ,41014,,1,repeat
41014,0,651,80,107,30,77,23,green,arrow-stim ,28,428797,0.0-4.0-0.15 ,41014,,1,repeat
41014,1,748,380,360,432,72,32,blue,arrow-stim ,29,433073,0.0-4.0-0.16 ,41014,,1,repeat
41014,1,1326,380,400,323,77,37,green,arrow-stim ,30,437920,0.0-4.0-0.17 ,41014,,0,switch
41014,1,1600,40,93,16,77,29,blue,arrow-stim ,31,443045,0.0-4.0-0.18 ,41014,,1,switch
41014,1,1287,40,60,-12,72,32,green,arrow-stim ,32,447859,0.0-4.0-0.19 ,41014,,0,switch
41014,1,1488,160,190,108,82,22,green,arrow-stim ,33,452878,0.0-4.0-0.20 ,41014,,0,repeat
41014,1,790,-80,-134,-47,87,21,blue,arrow-stim ,34,457196,0.0-4.0-0.21 ,41014,,1,switch
41014,1,2057,380,322,416,94,22,green,arrow-stim ,35,462792,0.0-4.0-0.22 ,41014,,0,switch
41014,1,713,-80,-59,-128,69,27,blue,arrow-stim ,36,467034,0.0-4.0-0.23 ,41014,,1,switch
41014,0,819,80,25,103,78,32,green,arrow-stim ,37,471382,0.0-4.0-0.24 ,41014,,1,repeat
41014,1,1672,40,-17,71,88,26,green,arrow-stim ,38,476585,0.0-4.0-0.25 ,41014,,0,switch
41014,1,1801,-80,-117,-23,94,20,green,arrow-stim ,39,481916,0.0-4.0-0.26 ,41014,,0,repeat
41014,1,1014,-80,-117,-22,95,21,green,arrow-stim ,40,486442,0.0-4.0-0.27 ,41014,,0,repeat
41014,1,667,40,-18,61,79,37,green,arrow-stim ,41,490636,0.0-4.0-0.28 ,41014,,0,repeat
41014,1,1299,380,404,321,83,35,green,arrow-stim ,42,495477,0.0-4.0-0.29 ,41014,,0,repeat
41014,1,1452,160,197,102,95,21,green,arrow-stim ,43,500453,0.0-4.0-0.30 ,41014,,0,repeat
41014,1,863,80,21,117,96,22,green,arrow-stim ,44,504839,0.0-4.0-0.31 ,41014,,0,repeat
41014,1,1551,-80,-47,-139,92,26,blue,arrow-stim ,45,509930,0.0-4.0-0.32 ,41014,,1,switch
41014,1,856,380,411,329,82,20,green,arrow-stim ,46,514317,0.0-4.0-0.33 ,41014,,0,switch
41014,1,932,40,69,-19,88,30,green,arrow-stim ,47,518771,0.0-4.0-0.34 ,41014,,0,repeat
41014,1,703,-80,-137,-56,81,33,blue,arrow-stim ,48,523001,0.0-4.0-0.35 ,41014,,1,switch
41014,1,1883,380,436,352,84,28,blue,arrow-stim ,49,528407,0.0-4.0-0.36 ,41014,,1,repeat
41014,1,764,-80,-59,-124,65,23,blue,arrow-stim ,50,532706,0.0-4.0-0.37 ,41014,,1,repeat
41014,1,640,80,60,124,64,24,blue,arrow-stim ,51,536887,0.0-4.0-0.38 ,41014,,1,repeat
41014,1,2554,380,355,436,81,31,blue,arrow-stim ,52,542958,0.0-4.0-0.39 ,41014,,1,repeat
41014,1,996,-80,-25,-103,78,32,green,arrow-stim ,53,547487,0.0-4.0-0.40 ,41014,,0,switch
41014,1,833,-80,-54,-134,80,28,blue,arrow-stim ,54,551865,0.0-4.0-0.41 ,41014,,1,switch
41014,1,684,380,347,437,90,24,blue,arrow-stim ,55,556083,0.0-4.0-0.42 ,41014,,1,repeat
41014,1,1465,380,324,416,92,20,green,arrow-stim ,56,561087,0.0-4.0-0.43 ,41014,,0,switch
41014,1,733,-80,-134,-47,87,21,blue,arrow-stim ,57,565347,0.0-4.0-0.44 ,41014,,1,switch
41014,1,1026,-80,-25,-114,89,21,green,arrow-stim ,58,569894,0.0-4.0-0.45 ,41014,,0,switch
41014,1,956,40,72,-16,88,24,green,arrow-stim ,59,574381,0.0-4.0-0.46 ,41014,,0,repeat
41014,1,1157,160,182,115,67,23,green,arrow-stim ,60,579074,0.0-4.0-0.47 ,41014,,0,repeat
41014,1,1550,-80,-48,-133,85,21,blue,arrow-stim ,61,584145,0.0-4.0-0.48 ,41014,,1,switch
41014,1,1389,40,-19,76,95,23,green,arrow-stim ,62,589048,0.0-4.0-0.49 ,41014,,0,switch
41014,1,771,-80,-133,-49,84,22,blue,arrow-stim ,63,593348,0.0-4.0-0.50 ,41014,,1,switch
41014,1,597,80,102,22,80,36,green,arrow-stim ,64,597481,0.0-4.0-0.51 ,41014,,0,switch
41014,1,658,40,75,-16,91,21,green,arrow-stim ,65,601660,0.0-4.0-0.52 ,41014,,0,repeat
41014,1,782,-80,-100,-32,68,28,green,arrow-stim ,66,605971,0.0-4.0-0.53 ,41014,,0,repeat
41014,1,705,160,210,130,80,20,blue,arrow-stim ,67,610205,0.0-4.0-0.54 ,41014,,1,switch
41014,1,1448,380,327,402,75,31,green,arrow-stim ,68,615172,0.0-4.0-0.55 ,41014,,0,switch
41014,1,1008,80,23,116,93,21,green,arrow-stim ,69,619712,0.0-4.0-0.56 ,41014,,0,repeat
41014,1,1066,80,34,106,72,20,green,arrow-stim ,70,624301,0.0-4.0-0.57 ,41014,,0,repeat
41014,1,2306,40,78,-19,97,21,green,arrow-stim ,71,630135,0.0-4.0-0.58 ,41014,,0,repeat
41014,1,1243,-80,-48,-136,88,24,blue,arrow-stim ,72,634905,0.0-4.0-0.59 ,41014,,1,switch
41014,0,2097,40,10,91,81,21,blue,arrow-stim ,73,640529,0.0-4.0-0.60 ,41014,,0,switch
41014,1,951,-80,-56,-134,78,30,blue,arrow-stim ,74,645012,0.0-4.0-0.61 ,41014,,1,switch
41014,1,840,80,137,53,84,30,blue,arrow-stim ,75,649382,0.0-4.0-0.62 ,41014,,1,repeat
41014,1,1044,160,140,219,79,39,blue,arrow-stim ,76,653955,0.0-4.0-0.63 ,41014,,1,repeat
41014,1,2419,80,42,138,96,20,blue,arrow-stim ,77,659904,0.0-4.0-0.64 ,41014,,1,repeat
41014,1,830,40,98,6,92,24,blue,arrow-stim ,78,664260,0.0-4.0-0.65 ,41014,,1,repeat
41014,0,1062,380,328,411,83,21,green,arrow-stim ,79,668855,0.0-4.0-0.66 ,41014,,1,repeat
41014,1,861,80,111,25,86,24,green,arrow-stim ,80,673242,0.0-4.0-0.67 ,41014,,0,switch
41014,0,1905,160,218,122,96,20,blue,arrow-stim ,81,678687,0.0-4.0-0.68 ,41014,,0,repeat
41014,0,712,160,104,187,83,29,green,arrow-stim ,82,682932,0.0-4.0-0.69 ,41014,,1,switch
41014,1,1325,-80,-135,-46,89,21,blue,arrow-stim ,83,687775,0.0-4.0-0.70 ,41014,,1,repeat
41014,1,1955,80,138,47,91,25,blue,arrow-stim ,84,693265,0.0-4.0-0.71 ,41014,,1,repeat
41014,1,2382,40,7,93,86,20,blue,arrow-stim ,85,699172,0.0-4.0-0.72 ,41014,,1,repeat
41014,1,2591,-80,-114,-22,92,24,green,arrow-stim ,86,705285,0.0-4.0-0.73 ,41014,,0,switch
41014,1,988,80,56,124,68,20,blue,arrow-stim ,87,709797,0.0-4.0-0.74 ,41014,,1,switch
41014,1,719,-80,-104,-24,80,32,green,arrow-stim ,88,714040,0.0-4.0-0.75 ,41014,,0,switch
41014,1,535,80,101,39,62,20,green,arrow-stim ,89,718091,0.0-4.0-0.76 ,41014,,0,repeat
41014,0,1001,160,132,211,79,23,blue,arrow-stim ,90,722614,0.0-4.0-0.77 ,41014,,0,repeat
41014,1,870,-80,-130,-60,70,30,blue,arrow-stim ,91,727008,0.0-4.0-0.78 ,41014,,1,switch
41014,1,1243,-80,-27,-113,86,20,green,arrow-stim ,96,755949,0.0-4.0-0.83 ,41014,,0,switch
41014,0,825,160,181,110,71,29,green,arrow-stim ,97,760294,0.0-4.0-0.84 ,41014,,1,switch
41014,1,502,160,106,180,74,34,green,arrow-stim ,98,764320,0.0-4.0-0.85 ,41014,,0,switch
41014,1,743,-80,-34,-106,72,20,green,arrow-stim ,99,768596,0.0-4.0-0.86 ,41014,,0,repeat
41014,1,611,40,3,98,95,21,blue,arrow-stim ,100,772730,0.0-4.0-0.87 ,41014,,1,switch
41014,0,966,380,327,411,84,22,green,arrow-stim ,101,777233,0.0-4.0-0.88 ,41014,,1,repeat
41014,1,950,380,404,335,69,21,green,arrow-stim ,102,781712,0.0-4.0-0.89 ,41014,,0,switch
41014,0,1406,160,112,186,74,22,green,arrow-stim ,103,786628,0.0-4.0-0.90 ,41014,,1,switch
41014,1,833,40,9,97,88,26,blue,arrow-stim ,104,790986,0.0-4.0-0.91 ,41014,,1,repeat
41014,1,763,40,6,95,89,21,blue,arrow-stim ,105,795276,0.0-4.0-0.92 ,41014,,1,repeat
41014,1,808,-80,-135,-45,90,20,blue,arrow-stim ,106,799614,0.0-4.0-0.93 ,41014,,1,repeat
41014,1,869,160,101,197,96,22,green,arrow-stim ,107,804022,0.0-4.0-0.94 ,41014,,0,switch
41014,1,920,160,191,102,89,27,green,arrow-stim ,108,808474,0.0-4.0-0.95 ,41014,,0,repeat
41014,1,780,40,15,85,70,20,blue,arrow-stim ,109,812805,0.0-4.0-0.96 ,41014,,1,switch
41014,0,809,80,29,111,82,20,green,arrow-stim ,110,817174,0.0-4.0-0.97 ,41014,,1,repeat
41014,1,677,80,24,106,82,30,green,arrow-stim ,111,821384,0.0-4.0-0.98 ,41014,,0,switch
41014,0,1360,160,219,133,86,32,blue,arrow-stim ,112,826280,0.0-4.0-0.99 ,41014,,0,repeat
41014,1,1487,380,438,342,96,20,blue,arrow-stim ,113,831296,0.0-4.0-0.100 ,41014,,1,switch
41014,1,1056,380,322,407,85,31,green,arrow-stim ,114,835880,0.0-4.0-0.101 ,41014,,0,switch
41014,1,703,40,75,-19,94,24,green,arrow-stim ,115,840123,0.0-4.0-0.102 ,41014,,0,repeat
41014,1,906,160,213,131,82,24,blue,arrow-stim ,116,844550,0.0-4.0-0.103 ,41014,,1,switch
41014,1,831,160,181,107,74,32,green,arrow-stim ,117,848908,0.0-4.0-0.104 ,41014,,0,switch
41014,1,1299,-80,-31,-107,76,22,green,arrow-stim ,118,853737,0.0-4.0-0.105 ,41014,,0,repeat
41014,1,1040,380,322,414,92,24,green,arrow-stim ,119,858293,0.0-4.0-0.106 ,41014,,0,repeat
41014,1,729,380,331,404,73,25,green,arrow-stim ,120,862551,0.0-4.0-0.107 ,41014,,0,repeat
41014,1,713,80,104,24,80,32,green,arrow-stim ,121,866789,0.0-4.0-0.108 ,41014,,0,repeat
41014,0,1579,40,-14,74,88,20,green,arrow-stim ,122,871890,0.0-4.0-0.109 ,41014,,1,switch
41014,1,658,40,93,14,79,27,blue,arrow-stim ,123,876069,0.0-4.0-0.110 ,41014,,1,repeat
41014,1,885,80,128,60,68,28,blue,arrow-stim ,124,880493,0.0-4.0-0.111 ,41014,,1,repeat
41014,1,831,80,23,110,87,27,green,arrow-stim ,125,884847,0.0-4.0-0.112 ,41014,,0,switch
41014,1,735,160,102,194,92,24,green,arrow-stim ,126,889111,0.0-4.0-0.113 ,41014,,0,repeat
41014,1,809,-80,-30,-110,80,20,green,arrow-stim ,127,893435,0.0-4.0-0.114 ,41014,,0,repeat
41014,1,1401,40,-12,72,84,20,green,arrow-stim ,128,898363,0.0-4.0-0.115 ,41014,,0,repeat
41014,0,1099,40,19,97,78,36,blue,arrow-stim ,129,902994,0.0-4.0-0.116 ,41014,,0,repeat
41014,1,682,80,106,28,78,26,green,arrow-stim ,130,907205,0.0-4.0-0.117 ,41014,,0,repeat
41014,1,1440,160,191,107,84,22,green,arrow-stim ,131,912158,0.0-4.0-0.118 ,41014,,0,repeat
41014,1,1324,80,130,57,73,27,blue,arrow-stim ,132,917018,0.0-4.0-0.119 ,41014,,1,switch
41014,1,1613,160,214,128,86,22,blue,arrow-stim ,133,922165,0.0-4.0-0.120 ,41014,,1,repeat
41014,1,1432,80,22,118,96,20,green,arrow-stim ,134,927117,0.0-4.0-0.121 ,41014,,0,switch
41014,1,1074,-80,-100,-23,77,37,green,arrow-stim ,135,931729,0.0-4.0-0.122 ,41014,,0,repeat
41014,1,1342,80,130,51,79,21,blue,arrow-stim ,136,936606,0.0-4.0-0.123 ,41014,,1,switch
41014,1,765,80,55,138,83,33,blue,arrow-stim ,137,940908,0.0-4.0-0.124 ,41014,,1,repeat
41014,1,790,80,132,49,83,21,blue,arrow-stim ,139,1047505,0.0-6.0-0.0 ,41014,,1,repeat
41014,1,629,80,138,58,80,36,blue,arrow-stim ,140,1051666,0.0-6.0-0.1 ,41014,,1,repeat
41014,0,904,160,127,215,88,22,blue,arrow-stim ,141,1056089,0.0-6.0-0.2 ,41014,,0,switch
41014,1,1732,40,-17,74,91,23,green,arrow-stim ,142,1061349,0.0-6.0-0.3 ,41014,,0,repeat
41014,0,1345,380,438,343,95,21,blue,arrow-stim ,143,1066228,0.0-6.0-0.4 ,41014,,0,repeat
41014,1,834,380,430,355,75,25,blue,arrow-stim ,144,1070585,0.0-6.0-0.5 ,41014,,1,switch
41014,1,768,380,413,322,91,25,green,arrow-stim ,145,1074876,0.0-6.0-0.6 ,41014,,0,switch
41014,1,1259,160,128,218,90,26,blue,arrow-stim ,146,1079676,0.0-6.0-0.7 ,41014,,1,switch
41014,1,1226,80,48,134,86,22,blue,arrow-stim ,147,1084439,0.0-6.0-0.8 ,41014,,1,repeat
41014,0,2839,380,343,439,96,22,blue,arrow-stim ,148,1090801,0.0-6.0-0.9 ,41014,,0,switch
41014,1,792,-80,-139,-60,79,39,blue,arrow-stim ,149,1095109,0.0-6.0-0.10 ,41014,,1,switch
41014,1,942,80,50,130,80,20,blue,arrow-stim ,150,1099583,0.0-6.0-0.11 ,41014,,1,repeat
41014,1,615,80,56,128,72,24,blue,arrow-stim ,151,1103723,0.0-6.0-0.12 ,41014,,1,repeat
41014,1,849,160,218,123,95,21,blue,arrow-stim ,152,1108103,0.0-6.0-0.13 ,41014,,1,repeat
41014,1,814,-80,-126,-56,70,22,blue,arrow-stim ,153,1112442,0.0-6.0-0.14 ,41014,,1,repeat
41014,1,1779,380,350,430,80,20,blue,arrow-stim ,154,1117752,0.0-6.0-0.15 ,41014,,1,repeat
41014,1,951,380,355,431,76,26,blue,arrow-stim ,155,1122232,0.0-6.0-0.16 ,41014,,1,repeat
41014,1,678,380,415,323,92,22,green,arrow-stim ,156,1126427,0.0-6.0-0.17 ,41014,,0,switch
41014,1,697,160,210,133,77,23,blue,arrow-stim ,157,1130651,0.0-6.0-0.18 ,41014,,1,switch
41014,1,1155,380,324,402,78,34,green,arrow-stim ,158,1135331,0.0-6.0-0.19 ,41014,,0,switch
41014,1,688,40,-19,74,93,25,green,arrow-stim ,159,1139554,0.0-6.0-0.20 ,41014,,0,repeat
41014,1,1947,-80,-22,-116,94,22,green,arrow-stim ,160,1145041,0.0-6.0-0.21 ,41014,,0,repeat
41014,1,1086,80,26,106,80,28,green,arrow-stim ,161,1149645,0.0-6.0-0.22 ,41014,,0,repeat
41014,1,1287,40,-11,61,72,30,green,arrow-stim ,162,1154468,0.0-6.0-0.23 ,41014,,0,repeat
41014,1,2606,380,438,344,94,22,blue,arrow-stim ,163,1160590,0.0-6.0-0.24 ,41014,,1,switch
41014,1,1123,80,111,22,89,27,green,arrow-stim ,164,1165238,0.0-6.0-0.25 ,41014,,0,switch
41014,1,697,80,108,32,76,20,green,arrow-stim ,165,1169459,0.0-6.0-0.26 ,41014,,0,repeat
41014,1,707,160,210,134,76,24,blue,arrow-stim ,166,1173682,0.0-6.0-0.27 ,41014,,1,switch
41014,1,1502,380,359,432,73,31,blue,arrow-stim ,167,1178712,0.0-6.0-0.28 ,41014,,1,repeat
41014,1,565,-80,-50,-135,85,25,blue,arrow-stim ,168,1182811,0.0-6.0-0.29 ,41014,,1,repeat
41014,1,583,-80,-23,-117,94,20,green,arrow-stim ,169,1186927,0.0-6.0-0.30 ,41014,,0,switch
41014,1,556,-80,-33,-103,70,24,green,arrow-stim ,170,1191007,0.0-6.0-0.31 ,41014,,0,repeat
41014,1,580,-80,-111,-23,88,26,green,arrow-stim ,171,1195104,0.0-6.0-0.32 ,41014,,0,repeat
41014,1,968,160,218,139,79,37,blue,arrow-stim ,172,1199601,0.0-6.0-0.33 ,41014,,1,switch
41014,1,886,160,102,182,80,36,green,arrow-stim ,173,1204026,0.0-6.0-0.34 ,41014,,0,switch
41014,1,671,40,15,95,80,30,blue,arrow-stim ,174,1208228,0.0-6.0-0.35 ,41014,,1,switch
41014,1,691,80,54,136,82,30,blue,arrow-stim ,175,1212433,0.0-6.0-0.36 ,41014,,1,repeat
41014,1,642,-80,-137,-55,82,32,blue,arrow-stim ,176,1216611,0.0-6.0-0.37 ,41014,,1,repeat
41014,1,1963,40,63,-12,75,29,green,arrow-stim ,177,1222101,0.0-6.0-0.38 ,41014,,0,switch
41014,1,910,160,209,134,75,23,blue,arrow-stim ,178,1226545,0.0-6.0-0.39 ,41014,,1,switch
41014,1,1016,80,35,101,66,24,green,arrow-stim ,179,1231089,0.0-6.0-0.40 ,41014,,0,switch
41014,1,832,160,211,132,79,23,blue,arrow-stim ,180,1235469,0.0-6.0-0.41 ,41014,,1,switch
41014,1,991,380,330,408,78,22,green,arrow-stim ,181,1239988,0.0-6.0-0.42 ,41014,,0,switch
41014,1,625,380,405,332,73,23,green,arrow-stim ,182,1244146,0.0-6.0-0.43 ,41014,,0,repeat
41014,1,502,-80,-132,-51,81,23,blue,arrow-stim ,183,1248176,0.0-6.0-0.44 ,41014,,1,switch
41014,1,489,80,134,58,76,32,blue,arrow-stim ,184,1252183,0.0-6.0-0.45 ,41014,,1,repeat
41014,1,478,80,45,138,93,23,blue,arrow-stim ,185,1256197,0.0-6.0-0.46 ,41014,,1,repeat
41014,1,426,-80,-109,-23,86,28,green,arrow-stim ,186,1260152,0.0-6.0-0.47 ,41014,,0,switch
41014,1,554,-80,-111,-26,85,23,green,arrow-stim ,187,1264236,0.0-6.0-0.48 ,41014,,0,repeat
41014,1,564,380,322,413,91,25,green,arrow-stim ,188,1268328,0.0-6.0-0.49 ,41014,,0,repeat
41014,0,516,80,46,137,91,23,blue,arrow-stim ,189,1272379,0.0-6.0-0.50 ,41014,,0,repeat
41014,1,556,-80,-47,-136,89,23,blue,arrow-stim ,190,1276462,0.0-6.0-0.51 ,41014,,1,switch
41014,1,488,380,406,326,80,28,green,arrow-stim ,191,1280476,0.0-6.0-0.52 ,41014,,0,switch
41014,0,1204,380,350,439,89,29,blue,arrow-stim ,192,1285216,0.0-6.0-0.53 ,41014,,0,repeat
41014,0,617,80,105,29,76,26,green,arrow-stim ,193,1289356,0.0-6.0-0.54 ,41014,,1,switch
41014,1,651,80,59,135,76,34,blue,arrow-stim ,194,1293544,0.0-6.0-0.55 ,41014,,1,repeat
41014,1,580,40,16,86,70,22,blue,arrow-stim ,195,1297644,0.0-6.0-0.56 ,41014,,1,repeat
41014,1,935,80,106,34,72,20,green,arrow-stim ,196,1302118,0.0-6.0-0.57 ,41014,,0,switch
41014,1,543,40,70,-13,83,23,green,arrow-stim ,197,1306203,0.0-6.0-0.58 ,41014,,0,repeat
41014,1,691,-80,-23,-103,80,34,green,arrow-stim ,198,1310422,0.0-6.0-0.59 ,41014,,0,repeat
41014,1,565,380,417,322,95,21,green,arrow-stim ,199,1314514,0.0-6.0-0.60 ,41014,,0,repeat
41014,0,1226,380,349,438,89,27,blue,arrow-stim ,200,1319264,0.0-6.0-0.61 ,41014,,0,repeat
41014,1,504,40,-15,62,77,33,green,arrow-stim ,201,1323305,0.0-6.0-0.62 ,41014,,0,repeat
41014,1,672,-80,-136,-55,81,31,blue,arrow-stim ,202,1327502,0.0-6.0-0.63 ,41014,,1,switch
41014,1,664,160,204,140,64,24,blue,arrow-stim ,203,1331688,0.0-6.0-0.64 ,41014,,1,repeat
41014,1,764,80,101,32,69,27,green,arrow-stim ,204,1335980,0.0-6.0-0.65 ,41014,,0,switch
41014,1,625,160,136,213,77,29,blue,arrow-stim ,205,1340125,0.0-6.0-0.66 ,41014,,1,switch
41014,1,680,-80,-59,-126,67,25,blue,arrow-stim ,206,1344348,0.0-6.0-0.67 ,41014,,1,repeat
41014,1,1079,160,106,185,79,29,green,arrow-stim ,207,1348942,0.0-6.0-0.68 ,41014,,0,switch
41014,1,619,80,134,53,81,27,blue,arrow-stim ,208,1353092,0.0-6.0-0.69 ,41014,,1,switch
41014,1,827,380,414,323,91,23,green,arrow-stim ,209,1357459,0.0-6.0-0.70 ,41014,,0,switch
41014,1,587,80,137,46,91,23,blue,arrow-stim ,210,1361572,0.0-6.0-0.71 ,41014,,1,switch
41014,1,757,80,138,45,93,23,blue,arrow-stim ,211,1365858,0.0-6.0-0.72 ,41014,,1,repeat
41014,1,703,-80,-106,-24,82,30,green,arrow-stim ,212,1370087,0.0-6.0-0.73 ,41014,,0,switch
41014,0,593,40,98,4,94,22,blue,arrow-stim ,213,1374212,0.0-6.0-0.74 ,41014,,0,repeat
41014,1,1073,80,139,43,96,22,blue,arrow-stim ,214,1378816,0.0-6.0-0.75 ,41014,,1,switch
41014,1,3711,40,93,8,85,21,blue,arrow-stim ,215,1386062,0.0-6.0-0.76 ,41014,,1,repeat
41014,1,578,40,16,89,73,25,blue,arrow-stim ,216,1390162,0.0-6.0-0.77 ,41014,,1,repeat
41014,1,579,40,-16,72,88,24,green,arrow-stim ,217,1394271,0.0-6.0-0.78 ,41014,,0,switch
41014,1,873,40,15,98,83,33,blue,arrow-stim ,218,1398667,0.0-6.0-0.79 ,41014,,1,switch
41014,1,832,380,322,413,91,25,green,arrow-stim ,219,1403018,0.0-6.0-0.80 ,41014,,0,switch
41014,1,1711,160,194,105,89,21,green,arrow-stim ,220,1408266,0.0-6.0-0.81 ,41014,,0,repeat
41014,1,762,160,129,212,83,21,blue,arrow-stim ,221,1412559,0.0-6.0-0.82 ,41014,,1,switch
41014,1,1135,40,97,4,93,21,blue,arrow-stim ,222,1417227,0.0-6.0-0.83 ,41014,,1,repeat
41014,1,830,160,133,210,77,23,blue,arrow-stim ,223,1421585,0.0-6.0-0.84 ,41014,,1,repeat
41014,1,871,40,-17,76,93,21,green,arrow-stim ,224,1425998,0.0-6.0-0.85 ,41014,,0,switch
41014,1,702,80,56,136,80,32,blue,arrow-stim ,225,1430227,0.0-6.0-0.86 ,41014,,1,switch
41014,0,604,80,24,116,92,20,green,arrow-stim ,226,1434356,0.0-6.0-0.87 ,41014,,1,repeat
41014,1,1229,-80,-42,-138,96,20,blue,arrow-stim ,227,1439117,0.0-6.0-0.88 ,41014,,1,repeat
41014,1,1367,160,124,216,92,20,blue,arrow-stim ,228,1444016,0.0-6.0-0.89 ,41014,,1,repeat
41014,1,825,160,208,134,74,22,blue,arrow-stim ,229,1448370,0.0-6.0-0.90 ,41014,,1,repeat
41014,1,1045,380,322,418,96,20,green,arrow-stim ,230,1452942,0.0-6.0-0.91 ,41014,,0,switch
41014,1,1055,40,15,87,72,22,blue,arrow-stim ,231,1457523,0.0-6.0-0.92 ,41014,,1,switch
41014,1,1301,-80,-21,-113,92,26,green,arrow-stim ,232,1462346,0.0-6.0-0.93 ,41014,,0,switch
41014,1,761,80,108,28,80,24,green,arrow-stim ,233,1466646,0.0-6.0-0.94 ,41014,,0,repeat
41014,1,714,-80,-42,-139,97,21,blue,arrow-stim ,234,1470896,0.0-6.0-0.95 ,41014,,1,switch
41014,1,700,-80,-111,-21,90,28,green,arrow-stim ,235,1475119,0.0-6.0-0.96 ,41014,,0,switch
41014,1,870,160,103,187,84,30,green,arrow-stim ,236,1479508,0.0-6.0-0.97 ,41014,,0,repeat
41014,1,625,-80,-107,-26,81,27,green,arrow-stim ,237,1483652,0.0-6.0-0.98 ,41014,,0,repeat
41014,0,712,380,431,351,80,22,blue,arrow-stim ,238,1487903,0.0-6.0-0.99 ,41014,,0,repeat
41014,0,1862,40,98,2,96,20,blue,arrow-stim ,239,1493286,0.0-6.0-0.100 ,41014,,0,repeat
41014,0,876,380,407,333,74,20,green,arrow-stim ,240,1497679,0.0-6.0-0.101 ,41014,,1,switch
41014,1,656,-80,-23,-115,92,22,green,arrow-stim ,241,1501859,0.0-6.0-0.102 ,41014,,0,switch
41014,1,740,-80,-50,-132,82,22,blue,arrow-stim ,242,1506143,0.0-6.0-0.103 ,41014,,1,switch
41014,1,916,80,27,108,81,25,green,arrow-stim ,243,1510589,0.0-6.0-0.104 ,41014,,0,switch
41014,1,564,-80,-136,-56,80,32,blue,arrow-stim ,244,1514672,0.0-6.0-0.105 ,41014,,1,switch
41014,1,1312,80,114,22,92,24,green,arrow-stim ,245,1519514,0.0-6.0-0.106 ,41014,,0,switch
41014,1,798,160,212,135,77,27,blue,arrow-stim ,246,1523842,0.0-6.0-0.107 ,41014,,1,switch
41014,1,695,80,110,24,86,26,green,arrow-stim ,247,1528057,0.0-6.0-0.108 ,41014,,0,switch
41014,0,278,-80,-102,-23,79,35,green,arrow-stim ,248,1531855,0.0-6.0-0.109 ,41014,,1,switch
41014,1,1045,380,437,348,89,25,blue,arrow-stim ,249,1536431,0.0-6.0-0.110 ,41014,,1,repeat
41014,1,1153,-80,-115,-23,92,22,green,arrow-stim ,250,1541105,0.0-6.0-0.111 ,41014,,0,switch
41014,1,595,380,322,414,92,24,green,arrow-stim ,251,1545226,0.0-6.0-0.112 ,41014,,0,repeat
41014,1,770,-80,-111,-23,88,26,green,arrow-stim ,252,1549531,0.0-6.0-0.113 ,41014,,0,repeat
41014,0,1146,380,354,430,76,24,blue,arrow-stim ,253,1554214,0.0-6.0-0.114 ,41014,,0,repeat
41014,1,912,40,7,95,88,22,blue,arrow-stim ,254,1558645,0.0-6.0-0.115 ,41014,,1,switch
41014,1,903,80,139,51,88,30,blue,arrow-stim ,255,1563087,0.0-6.0-0.116 ,41014,,1,repeat
41014,1,1388,40,89,20,69,29,blue,arrow-stim ,256,1568009,0.0-6.0-0.117 ,41014,,1,repeat
41014,0,1660,160,191,105,86,24,green,arrow-stim ,257,1573207,0.0-6.0-0.118 ,41014,,1,repeat
41014,1,1202,40,17,88,71,25,blue,arrow-stim ,258,1577941,0.0-6.0-0.119 ,41014,,1,repeat
41014,1,851,-80,-53,-127,74,20,blue,arrow-stim ,259,1582321,0.0-6.0-0.120 ,41014,,1,repeat
41014,1,1655,160,184,106,78,30,green,arrow-stim ,260,1587498,0.0-6.0-0.121 ,41014,,0,switch
41014,1,528,160,188,111,77,21,green,arrow-stim ,261,1591551,0.0-6.0-0.122 ,41014,,0,repeat
41014,0,1101,160,218,127,91,25,blue,arrow-stim ,262,1596190,0.0-6.0-0.123 ,41014,,0,repeat
41014,1,962,160,136,209,73,25,blue,arrow-stim ,263,1600680,0.0-6.0-0.124 ,41014,,1,switch
41014,1,2528,40,87,17,70,24,blue,arrow-stim ,265,1929239,0.0-8.0-0.0 ,41014,,1,repeat
41014,1,1543,40,90,17,73,27,blue,arrow-stim ,266,1934308,0.0-8.0-0.1 ,41014,,1,repeat
41014,1,710,-80,-23,-117,94,20,green,arrow-stim ,267,1938544,0.0-8.0-0.2 ,41014,,0,switch
41014,1,550,80,108,26,82,26,green,arrow-stim ,268,1942626,0.0-8.0-0.3 ,41014,,0,repeat
41014,1,584,40,-18,77,95,21,green,arrow-stim ,269,1946732,0.0-8.0-0.4 ,41014,,0,repeat
41014,1,1105,380,439,344,95,23,blue,arrow-stim ,270,1951359,0.0-8.0-0.5 ,41014,,1,switch
41014,1,942,-80,-105,-30,75,25,green,arrow-stim ,271,1955825,0.0-8.0-0.6 ,41014,,0,switch
41014,1,1911,160,218,122,96,20,blue,arrow-stim ,272,1961265,0.0-8.0-0.7 ,41014,,1,switch
41014,1,805,-80,-57,-131,74,28,blue,arrow-stim ,273,1965598,0.0-8.0-0.8 ,41014,,1,repeat
41014,1,714,80,112,21,91,27,green,arrow-stim ,274,1969825,0.0-8.0-0.9 ,41014,,0,switch
41014,0,822,160,136,208,72,24,blue,arrow-stim ,275,1974175,0.0-8.0-0.10 ,41014,,0,repeat
41014,1,1116,40,17,87,70,24,blue,arrow-stim ,276,1978825,0.0-8.0-0.11 ,41014,,1,switch
41014,1,541,80,48,132,84,20,blue,arrow-stim ,277,1982891,0.0-8.0-0.12 ,41014,,1,repeat
41014,0,885,40,93,12,81,25,blue,arrow-stim ,278,1987298,0.0-8.0-0.13 ,41014,,0,switch
41014,1,993,80,25,115,90,20,green,arrow-stim ,279,1991826,0.0-8.0-0.14 ,41014,,0,repeat
41014,1,1380,-80,-105,-29,76,26,green,arrow-stim ,280,1996722,0.0-8.0-0.15 ,41014,,0,repeat
41014,1,627,80,55,129,74,24,blue,arrow-stim ,281,2000879,0.0-8.0-0.16 ,41014,,1,switch
41014,1,648,80,22,108,86,30,green,arrow-stim ,282,2005057,0.0-8.0-0.17 ,41014,,0,switch
41014,1,849,160,207,133,74,20,blue,arrow-stim ,283,2009429,0.0-8.0-0.18 ,41014,,1,switch
41014,1,1063,80,110,26,84,24,green,arrow-stim ,284,2014006,0.0-8.0-0.19 ,41014,,0,switch
41014,1,1024,160,183,102,81,35,green,arrow-stim ,285,2018562,0.0-8.0-0.20 ,41014,,0,repeat
41014,1,877,80,139,45,94,24,blue,arrow-stim ,286,2022972,0.0-8.0-0.21 ,41014,,1,switch
41014,1,608,80,105,24,81,31,green,arrow-stim ,287,2027112,0.0-8.0-0.22 ,41014,,0,switch
41014,1,983,80,114,21,93,25,green,arrow-stim ,288,2031630,0.0-8.0-0.23 ,41014,,0,repeat
41014,1,897,-80,-134,-54,80,28,blue,arrow-stim ,289,2036051,0.0-8.0-0.24 ,41014,,1,switch
41014,1,810,80,22,118,96,20,green,arrow-stim ,290,2040392,0.0-8.0-0.25 ,41014,,0,switch
41014,1,775,-80,-52,-138,86,30,blue,arrow-stim ,291,2044682,0.0-8.0-0.26 ,41014,,1,switch
41014,1,917,-80,-115,-21,94,24,green,arrow-stim ,292,2049126,0.0-8.0-0.27 ,41014,,0,switch
41014,1,703,-80,-136,-49,87,25,blue,arrow-stim ,293,2053353,0.0-8.0-0.28 ,41014,,1,switch
41014,1,509,-80,-130,-57,73,27,blue,arrow-stim ,294,2057392,0.0-8.0-0.29 ,41014,,1,repeat
41014,1,719,380,324,403,79,33,green,arrow-stim ,295,2061632,0.0-8.0-0.30 ,41014,,0,switch
41014,1,1306,40,96,20,76,36,blue,arrow-stim ,296,2066466,0.0-8.0-0.31 ,41014,,1,switch
41014,1,627,80,136,44,92,20,blue,arrow-stim ,297,2070619,0.0-8.0-0.32 ,41014,,1,repeat
41014,1,508,80,47,138,91,25,blue,arrow-stim ,298,2074660,0.0-8.0-0.33 ,41014,,1,repeat
41014,1,910,160,108,190,82,22,green,arrow-stim ,299,2079086,0.0-8.0-0.34 ,41014,,0,switch
41014,1,617,380,429,359,70,28,blue,arrow-stim ,300,2083228,0.0-8.0-0.35 ,41014,,1,switch
41014,1,651,80,100,36,64,24,green,arrow-stim ,301,2087400,0.0-8.0-0.36 ,41014,,0,switch
41014,1,661,40,11,94,83,25,blue,arrow-stim ,302,2091602,0.0-8.0-0.37 ,41014,,1,switch
41014,1,577,80,23,103,80,34,green,arrow-stim ,303,2095707,0.0-8.0-0.38 ,41014,,0,switch
41014,1,736,80,112,26,86,22,green,arrow-stim ,304,2099983,0.0-8.0-0.39 ,41014,,0,repeat
41014,1,712,160,140,207,67,27,blue,arrow-stim ,305,2104218,0.0-8.0-0.40 ,41014,,1,switch
41014,1,638,-80,-137,-48,89,25,blue,arrow-stim ,306,2108376,0.0-8.0-0.41 ,41014,,1,repeat
41014,1,671,80,100,30,70,30,green,arrow-stim ,307,2112586,0.0-8.0-0.42 ,41014,,0,switch
41014,1,1826,40,98,6,92,24,blue,arrow-stim ,308,2117939,0.0-8.0-0.43 ,41014,,1,switch
41014,1,811,160,101,196,95,23,green,arrow-stim ,309,2122269,0.0-8.0-0.44 ,41014,,0,switch
41014,1,976,40,64,-14,78,30,green,arrow-stim ,310,2126772,0.0-8.0-0.45 ,41014,,0,repeat
41014,1,787,-80,-55,-125,70,20,blue,arrow-stim ,311,2131088,0.0-8.0-0.46 ,41014,,1,switch
41014,1,568,40,-18,64,82,34,green,arrow-stim ,312,2135190,0.0-8.0-0.47 ,41014,,0,switch
41014,1,964,160,189,105,84,26,green,arrow-stim ,313,2139688,0.0-8.0-0.48 ,41014,,0,repeat
41014,1,962,-80,-114,-23,91,23,green,arrow-stim ,314,2144182,0.0-8.0-0.49 ,41014,,0,repeat
41014,1,706,-80,-139,-46,93,25,blue,arrow-stim ,315,2148422,0.0-8.0-0.50 ,41014,,1,switch
41014,1,890,160,129,219,90,28,blue,arrow-stim ,316,2152846,0.0-8.0-0.51 ,41014,,1,repeat
41014,1,534,380,418,322,96,20,green,arrow-stim ,317,2156897,0.0-8.0-0.52 ,41014,,0,switch
41014,0,1031,40,4,98,94,22,blue,arrow-stim ,318,2161459,0.0-8.0-0.53 ,41014,,0,repeat
41014,1,580,80,135,54,81,29,blue,arrow-stim ,319,2165558,0.0-8.0-0.54 ,41014,,1,switch
41014,1,842,-80,-55,-132,77,27,blue,arrow-stim ,320,2169918,0.0-8.0-0.55 ,41014,,1,repeat
41014,1,1114,40,93,7,86,20,blue,arrow-stim ,321,2174562,0.0-8.0-0.56 ,41014,,1,repeat
41014,1,619,380,437,347,90,24,blue,arrow-stim ,322,2178717,0.0-8.0-0.57 ,41014,,1,repeat
41014,1,770,160,191,103,88,26,green,arrow-stim ,323,2183024,0.0-8.0-0.58 ,41014,,0,switch
41014,1,646,40,70,-19,89,29,green,arrow-stim ,324,2187206,0.0-8.0-0.59 ,41014,,0,repeat
41014,1,634,80,106,21,85,33,green,arrow-stim ,325,2191373,0.0-8.0-0.60 ,41014,,0,repeat
41014,1,916,80,42,139,97,21,blue,arrow-stim ,326,2195816,0.0-8.0-0.61 ,41014,,1,switch
41014,1,705,160,214,129,85,23,blue,arrow-stim ,327,2200039,0.0-8.0-0.62 ,41014,,1,repeat
41014,1,651,160,219,124,95,23,blue,arrow-stim ,328,2204220,0.0-8.0-0.63 ,41014,,1,repeat
41014,1,911,-80,-137,-47,90,24,blue,arrow-stim ,329,2208662,0.0-8.0-0.64 ,41014,,1,repeat
41014,1,515,-80,-138,-59,79,37,blue,arrow-stim ,330,2212706,0.0-8.0-0.65 ,41014,,1,repeat
41014,1,637,80,139,44,95,23,blue,arrow-stim ,331,2216889,0.0-8.0-0.66 ,41014,,1,repeat
41014,1,817,-80,-114,-22,92,24,green,arrow-stim ,332,2221236,0.0-8.0-0.67 ,41014,,0,switch
41014,1,792,380,407,330,77,23,green,arrow-stim ,333,2225553,0.0-8.0-0.68 ,41014,,0,repeat
41014,1,757,40,66,-18,84,32,green,arrow-stim ,334,2229837,0.0-8.0-0.69 ,41014,,0,repeat
41014,1,923,-80,-21,-116,95,23,green,arrow-stim ,335,2234278,0.0-8.0-0.70 ,41014,,0,repeat
41014,0,1016,40,98,4,94,22,blue,arrow-stim ,336,2238822,0.0-8.0-0.71 ,41014,,0,repeat
41014,1,1001,-80,-31,-103,72,26,green,arrow-stim ,337,2243351,0.0-8.0-0.72 ,41014,,0,repeat
41014,1,694,40,-12,71,83,21,green,arrow-stim ,338,2247577,0.0-8.0-0.73 ,41014,,0,repeat
41014,1,594,40,8,96,88,24,blue,arrow-stim ,339,2251703,0.0-8.0-0.74 ,41014,,1,switch
41014,1,657,380,351,433,82,24,blue,arrow-stim ,340,2255879,0.0-8.0-0.75 ,41014,,1,repeat
41014,1,691,80,116,24,92,20,green,arrow-stim ,341,2260094,0.0-8.0-0.76 ,41014,,0,switch
41014,1,912,40,63,-18,81,35,green,arrow-stim ,342,2264538,0.0-8.0-0.77 ,41014,,0,repeat
41014,1,929,160,211,130,81,21,blue,arrow-stim ,343,2269000,0.0-8.0-0.78 ,41014,,1,switch
41014,1,741,160,219,133,86,32,blue,arrow-stim ,344,2273269,0.0-8.0-0.79 ,41014,,1,repeat
41014,1,792,80,103,37,66,20,green,arrow-stim ,345,2277608,0.0-8.0-0.80 ,41014,,0,switch
41014,0,1129,380,438,359,79,37,blue,arrow-stim ,346,2282258,0.0-8.0-0.81 ,41014,,0,repeat
41014,1,944,80,22,115,93,23,green,arrow-stim ,347,2286723,0.0-8.0-0.82 ,41014,,0,repeat
41014,1,1034,80,107,33,74,20,green,arrow-stim ,348,2291303,0.0-8.0-0.83 ,41014,,0,repeat
41014,1,694,80,115,23,92,22,green,arrow-stim ,349,2295527,0.0-8.0-0.84 ,41014,,0,repeat
41014,1,709,80,104,32,72,24,green,arrow-stim ,350,2299776,0.0-8.0-0.85 ,41014,,0,repeat
41014,1,667,380,434,347,87,21,blue,arrow-stim ,351,2303974,0.0-8.0-0.86 ,41014,,1,switch
41014,1,877,80,111,25,86,24,green,arrow-stim ,352,2308377,0.0-8.0-0.87 ,41014,,0,switch
41014,1,701,-80,-24,-105,81,31,green,arrow-stim ,353,2312599,0.0-8.0-0.88 ,41014,,0,repeat
41014,1,678,160,111,184,73,25,green,arrow-stim ,354,2316796,0.0-8.0-0.89 ,41014,,0,repeat
41014,1,801,160,211,134,77,25,blue,arrow-stim ,355,2321116,0.0-8.0-0.90 ,41014,,1,switch
41014,1,1163,40,95,20,75,35,blue,arrow-stim ,356,2325808,0.0-8.0-0.91 ,41014,,1,repeat
41014,1,835,-80,-102,-31,71,27,green,arrow-stim ,357,2330167,0.0-8.0-0.92 ,41014,,0,switch
41014,1,681,380,337,401,64,22,green,arrow-stim ,358,2334378,0.0-8.0-0.93 ,41014,,0,repeat
41014,1,692,-80,-133,-52,81,25,blue,arrow-stim ,359,2338596,0.0-8.0-0.94 ,41014,,1,switch
41014,1,1322,-80,-49,-132,83,21,blue,arrow-stim ,360,2343446,0.0-8.0-0.95 ,41014,,1,repeat
41014,1,556,40,66,-15,81,29,green,arrow-stim ,361,2347519,0.0-8.0-0.96 ,41014,,0,switch
41014,1,1330,40,85,15,70,20,blue,arrow-stim ,362,2352378,0.0-8.0-0.97 ,41014,,1,switch
41014,1,588,160,184,112,72,24,green,arrow-stim ,363,2356492,0.0-8.0-0.98 ,41014,,0,switch
41014,1,711,80,110,25,85,25,green,arrow-stim ,364,2360726,0.0-8.0-0.99 ,41014,,0,repeat
41014,1,1351,380,357,428,71,25,blue,arrow-stim ,365,2365600,0.0-8.0-0.100 ,41014,,1,switch
41014,1,1223,160,105,184,79,31,green,arrow-stim ,366,2370349,0.0-8.0-0.101 ,41014,,0,switch
41014,1,768,40,10,99,89,29,blue,arrow-stim ,367,2374658,0.0-8.0-0.102 ,41014,,1,switch
41014,1,891,160,130,218,88,28,blue,arrow-stim ,368,2379060,0.0-8.0-0.103 ,41014,,1,repeat
41014,1,609,160,219,123,96,22,blue,arrow-stim ,369,2383184,0.0-8.0-0.104 ,41014,,1,repeat
41014,1,585,160,122,218,96,20,blue,arrow-stim ,370,2387305,0.0-8.0-0.105 ,41014,,1,repeat
41014,1,611,80,24,112,88,24,green,arrow-stim ,371,2391468,0.0-8.0-0.106 ,41014,,0,switch
41014,1,669,40,-14,61,75,33,green,arrow-stim ,372,2395665,0.0-8.0-0.107 ,41014,,0,repeat
41014,1,571,80,21,105,84,34,green,arrow-stim ,373,2399766,0.0-8.0-0.108 ,41014,,0,repeat
41014,1,592,40,-10,65,75,25,green,arrow-stim ,374,2403878,0.0-8.0-0.109 ,41014,,0,repeat
41014,0,1421,380,354,431,77,25,blue,arrow-stim ,375,2408839,0.0-8.0-0.110 ,41014,,0,repeat
41014,1,634,380,347,434,87,21,blue,arrow-stim ,376,2412998,0.0-8.0-0.111 ,41014,,1,switch
41014,1,538,40,90,15,75,25,blue,arrow-stim ,377,2417081,0.0-8.0-0.112 ,41014,,1,repeat
41014,1,596,380,356,424,68,20,blue,arrow-stim ,378,2421211,0.0-8.0-0.113 ,41014,,1,repeat
41014,1,1170,380,418,322,96,20,green,arrow-stim ,379,2425912,0.0-8.0-0.114 ,41014,,0,switch
41014,1,828,160,136,218,82,34,blue,arrow-stim ,380,2430265,0.0-8.0-0.115 ,41014,,1,switch
41014,1,671,-80,-133,-47,86,20,blue,arrow-stim ,381,2434468,0.0-8.0-0.116 ,41014,,1,repeat
41014,0,810,160,208,132,76,20,blue,arrow-stim ,382,2438805,0.0-8.0-0.117 ,41014,,0,switch
41014,1,529,380,431,349,82,20,blue,arrow-stim ,383,2442861,0.0-8.0-0.118 ,41014,,1,switch
41014,1,1324,160,192,104,88,24,green,arrow-stim ,384,2447712,0.0-8.0-0.119 ,41014,,0,switch
41014,1,1231,40,75,-18,93,23,green,arrow-stim ,385,2452470,0.0-8.0-0.120 ,41014,,0,repeat
41014,1,861,-80,-50,-135,85,25,blue,arrow-stim ,386,2456850,0.0-8.0-0.121 ,41014,,1,switch
41014,1,633,80,22,115,93,23,green,arrow-stim ,387,2461016,0.0-8.0-0.122 ,41014,,0,switch
41014,1,785,160,213,137,76,30,blue,arrow-stim ,388,2465320,0.0-8.0-0.123 ,41014,,1,switch
41014,1,529,380,336,404,68,20,green,arrow-stim ,389,2469379,0.0-8.0-0.124 ,41014,,0,switch
41014,1,2506,160,212,128,84,20,blue,arrow-stim ,391,2607540,0.0-10.0-0.0 ,41014,,1,switch
41014,1,1156,380,401,339,62,20,green,arrow-stim ,392,2612219,0.0-10.0-0.1 ,41014,,0,switch
41014,1,967,80,43,137,94,20,blue,arrow-stim ,393,2616716,0.0-10.0-0.2 ,41014,,1,switch
41014,0,1157,380,343,437,94,20,blue,arrow-stim ,394,2621402,0.0-10.0-0.3 ,41014,,0,switch
41014,1,777,80,23,112,89,25,green,arrow-stim ,395,2625697,0.0-10.0-0.4 ,41014,,0,repeat
41014,1,588,-80,-59,-135,76,34,blue,arrow-stim ,396,2629805,0.0-10.0-0.5 ,41014,,1,switch
41014,1,1124,380,417,323,94,20,green,arrow-stim ,397,2634444,0.0-10.0-0.6 ,41014,,0,switch
41014,1,961,160,138,204,66,22,blue,arrow-stim ,398,2638937,0.0-10.0-0.7 ,41014,,1,switch
41014,1,941,40,69,-12,81,23,green,arrow-stim ,399,2643404,0.0-10.0-0.8 ,41014,,0,switch
41014,1,704,160,129,214,85,23,blue,arrow-stim ,400,2647637,0.0-10.0-0.9 ,41014,,1,switch
41014,1,780,80,116,21,95,23,green,arrow-stim ,401,2651940,0.0-10.0-0.10 ,41014,,0,switch
41014,1,1353,40,97,7,90,24,blue,arrow-stim ,402,2656828,0.0-10.0-0.11 ,41014,,1,switch
41014,1,729,380,416,324,92,20,green,arrow-stim ,403,2661081,0.0-10.0-0.12 ,41014,,0,switch
41014,1,1001,80,109,23,86,28,green,arrow-stim ,404,2665607,0.0-10.0-0.13 ,41014,,0,repeat
41014,1,672,40,77,-17,94,20,green,arrow-stim ,405,2669797,0.0-10.0-0.14 ,41014,,0,repeat
41014,1,693,80,45,138,93,23,blue,arrow-stim ,406,2674021,0.0-10.0-0.15 ,41014,,1,switch
41014,1,932,-80,-29,-106,77,25,green,arrow-stim ,407,2678477,0.0-10.0-0.16 ,41014,,0,switch
41014,1,1104,380,353,439,86,32,blue,arrow-stim ,408,2683097,0.0-10.0-0.17 ,41014,,1,switch
41014,1,825,160,140,215,75,35,blue,arrow-stim ,409,2687455,0.0-10.0-0.18 ,41014,,1,repeat
41014,1,543,80,107,30,77,23,green,arrow-stim ,410,2691514,0.0-10.0-0.19 ,41014,,0,switch
41014,1,635,160,218,139,79,37,blue,arrow-stim ,411,2695674,0.0-10.0-0.20 ,41014,,1,switch
41014,1,612,80,55,137,82,32,blue,arrow-stim ,412,2699795,0.0-10.0-0.21 ,41014,,1,repeat
41014,1,908,160,117,183,66,20,green,arrow-stim ,413,2704231,0.0-10.0-0.22 ,41014,,0,switch
41014,1,660,380,404,335,69,21,green,arrow-stim ,414,2708416,0.0-10.0-0.23 ,41014,,0,repeat
41014,1,707,80,49,137,88,26,blue,arrow-stim ,415,2712657,0.0-10.0-0.24 ,41014,,1,switch
41014,1,777,-80,-51,-135,84,26,blue,arrow-stim ,416,2716981,0.0-10.0-0.25 ,41014,,1,repeat
41014,0,987,40,13,92,79,25,blue,arrow-stim ,417,2721506,0.0-10.0-0.26 ,41014,,0,switch
41014,1,1015,380,342,439,97,21,blue,arrow-stim ,418,2726049,0.0-10.0-0.27 ,41014,,1,switch
41014,1,558,-80,-51,-136,85,27,blue,arrow-stim ,419,2730148,0.0-10.0-0.28 ,41014,,1,repeat
41014,0,626,160,194,106,88,20,green,arrow-stim ,420,2734297,0.0-10.0-0.29 ,41014,,1,repeat
41014,1,594,-80,-54,-138,84,32,blue,arrow-stim ,421,2738422,0.0-10.0-0.30 ,41014,,1,repeat
41014,1,632,380,439,360,79,39,blue,arrow-stim ,422,2742582,0.0-10.0-0.31 ,41014,,1,repeat
41014,1,556,380,321,409,88,30,green,arrow-stim ,423,2746663,0.0-10.0-0.32 ,41014,,0,switch
41014,1,1008,40,-17,73,90,24,green,arrow-stim ,424,2751196,0.0-10.0-0.33 ,41014,,0,repeat
41014,1,1298,40,3,99,96,22,blue,arrow-stim ,425,2756028,0.0-10.0-0.34 ,41014,,1,switch
41014,1,859,80,136,59,77,35,blue,arrow-stim ,426,2760425,0.0-10.0-0.35 ,41014,,1,repeat
41014,1,530,160,131,212,81,23,blue,arrow-stim ,427,2764475,0.0-10.0-0.36 ,41014,,1,repeat
41014,1,620,40,17,85,68,22,blue,arrow-stim ,428,2768621,0.0-10.0-0.37 ,41014,,1,repeat
41014,1,719,380,326,414,88,20,green,arrow-stim ,429,2772879,0.0-10.0-0.38 ,41014,,0,switch
41014,1,597,-80,-51,-131,80,22,blue,arrow-stim ,430,2777009,0.0-10.0-0.39 ,41014,,1,switch
41014,1,695,160,103,197,94,20,green,arrow-stim ,431,2781238,0.0-10.0-0.40 ,41014,,0,switch
41014,1,779,160,139,207,68,26,blue,arrow-stim ,432,2785539,0.0-10.0-0.41 ,41014,,1,switch
41014,1,861,160,112,182,70,26,green,arrow-stim ,433,2789921,0.0-10.0-0.42 ,41014,,0,switch
41014,1,695,-80,-35,-103,68,22,green,arrow-stim ,434,2794155,0.0-10.0-0.43 ,41014,,0,repeat
41014,1,642,380,401,326,75,33,green,arrow-stim ,435,2798322,0.0-10.0-0.44 ,41014,,0,repeat
41014,1,672,40,93,9,84,22,blue,arrow-stim ,436,2802532,0.0-10.0-0.45 ,41014,,1,switch
41014,1,565,-80,-26,-106,80,28,green,arrow-stim ,437,2806630,0.0-10.0-0.46 ,41014,,0,switch
41014,1,558,40,77,-18,95,21,green,arrow-stim ,438,2810721,0.0-10.0-0.47 ,41014,,0,repeat
41014,1,771,80,44,138,94,22,blue,arrow-stim ,439,2815019,0.0-10.0-0.48 ,41014,,1,switch
41014,0,924,80,22,118,96,20,green,arrow-stim ,440,2819466,0.0-10.0-0.49 ,41014,,1,repeat
41014,1,1113,80,106,29,77,25,green,arrow-stim ,441,2824112,0.0-10.0-0.50 ,41014,,0,switch
41014,1,864,40,67,-15,82,28,green,arrow-stim ,442,2828507,0.0-10.0-0.51 ,41014,,0,repeat
41014,1,673,40,94,13,81,27,blue,arrow-stim ,443,2832705,0.0-10.0-0.52 ,41014,,1,switch
41014,1,744,380,324,409,85,27,green,arrow-stim ,444,2836985,0.0-10.0-0.53 ,41014,,0,switch
41014,0,1155,160,102,197,95,21,green,arrow-stim ,445,2841673,0.0-10.0-0.54 ,41014,,1,switch
41014,0,1213,380,356,432,76,28,blue,arrow-stim ,446,2846402,0.0-10.0-0.55 ,41014,,0,switch
41014,1,491,-80,-48,-139,91,27,blue,arrow-stim ,447,2850423,0.0-10.0-0.56 ,41014,,1,switch
41014,1,545,40,14,86,72,20,blue,arrow-stim ,448,2854500,0.0-10.0-0.57 ,41014,,1,repeat
41014,0,1145,40,12,98,86,30,blue,arrow-stim ,449,2859175,0.0-10.0-0.58 ,41014,,0,switch
41014,1,862,-80,-104,-27,77,29,green,arrow-stim ,450,2863576,0.0-10.0-0.59 ,41014,,0,repeat
41014,1,630,380,410,321,89,29,green,arrow-stim ,451,2867740,0.0-10.0-0.60 ,41014,,0,repeat
41014,1,606,40,95,11,84,26,blue,arrow-stim ,452,2871871,0.0-10.0-0.61 ,41014,,1,switch
41014,0,863,160,184,106,78,30,green,arrow-stim ,453,2876263,0.0-10.0-0.62 ,41014,,1,repeat
41014,1,684,80,31,107,76,22,green,arrow-stim ,454,2880457,0.0-10.0-0.63 ,41014,,0,switch
41014,1,702,80,115,24,91,21,green,arrow-stim ,455,2884692,0.0-10.0-0.64 ,41014,,0,repeat
41014,1,627,40,75,-17,92,22,green,arrow-stim ,456,2888846,0.0-10.0-0.65 ,41014,,0,repeat
41014,0,1334,160,101,198,97,21,green,arrow-stim ,457,2893698,0.0-10.0-0.66 ,41014,,1,switch
41014,1,750,-80,-134,-46,88,20,blue,arrow-stim ,458,2897986,0.0-10.0-0.67 ,41014,,1,repeat
41014,1,988,-80,-110,-26,84,24,green,arrow-stim ,459,2902496,0.0-10.0-0.68 ,41014,,0,switch
41014,1,649,160,212,129,83,21,blue,arrow-stim ,460,2906673,0.0-10.0-0.69 ,41014,,1,switch
41014,1,589,-80,-29,-105,76,26,green,arrow-stim ,461,2910792,0.0-10.0-0.70 ,41014,,0,switch
41014,0,869,380,403,321,82,36,green,arrow-stim ,462,2915189,0.0-10.0-0.71 ,41014,,1,switch
41014,1,1143,40,97,3,94,20,blue,arrow-stim ,463,2919855,0.0-10.0-0.72 ,41014,,1,repeat
41014,1,625,40,-17,72,89,25,green,arrow-stim ,464,2924004,0.0-10.0-0.73 ,41014,,0,switch
41014,1,744,160,218,133,85,31,blue,arrow-stim ,465,2928286,0.0-10.0-0.74 ,41014,,1,switch
41014,1,566,80,27,103,76,30,green,arrow-stim ,466,2932377,0.0-10.0-0.75 ,41014,,0,switch
41014,0,2033,380,347,436,89,23,blue,arrow-stim ,467,2937928,0.0-10.0-0.76 ,41014,,0,repeat
41014,1,870,-80,-113,-27,86,20,green,arrow-stim ,468,2942322,0.0-10.0-0.77 ,41014,,0,repeat
41014,1,1309,-80,-132,-59,73,31,blue,arrow-stim ,469,2947164,0.0-10.0-0.78 ,41014,,1,switch
41014,1,608,-80,-109,-23,86,28,green,arrow-stim ,470,2951301,0.0-10.0-0.79 ,41014,,0,switch
41014,1,1949,160,214,138,76,32,blue,arrow-stim ,471,2956773,0.0-10.0-0.80 ,41014,,1,switch
41014,1,1023,-80,-102,-27,75,31,green,arrow-stim ,472,2961324,0.0-10.0-0.81 ,41014,,0,switch
41014,1,946,380,401,336,65,23,green,arrow-stim ,473,2965809,0.0-10.0-0.82 ,41014,,0,repeat
41014,1,673,-80,-104,-31,73,25,green,arrow-stim ,474,2970013,0.0-10.0-0.83 ,41014,,0,repeat
41014,1,572,40,-18,65,83,33,green,arrow-stim ,475,2974117,0.0-10.0-0.84 ,41014,,0,repeat
41014,1,558,40,-5,64,69,21,green,arrow-stim ,476,2978197,0.0-10.0-0.85 ,41014,,0,repeat
41014,1,772,80,21,108,87,31,green,arrow-stim ,477,2982497,0.0-10.0-0.86 ,41014,,0,repeat
41014,1,750,-80,-29,-103,74,28,green,arrow-stim ,478,2986766,0.0-10.0-0.87 ,41014,,0,repeat
41014,1,642,80,114,26,88,20,green,arrow-stim ,479,2990939,0.0-10.0-0.88 ,41014,,0,repeat
41014,1,1498,160,193,106,87,21,green,arrow-stim ,480,2995972,0.0-10.0-0.89 ,41014,,0,repeat
41014,1,805,160,188,109,79,23,green,arrow-stim ,481,3000306,0.0-10.0-0.90 ,41014,,0,repeat
41014,1,755,160,112,181,69,27,green,arrow-stim ,482,3004581,0.0-10.0-0.91 ,41014,,0,repeat
41014,1,1021,-80,-34,-103,69,23,green,arrow-stim ,483,3009132,0.0-10.0-0.92 ,41014,,0,repeat
41014,1,579,380,401,324,77,35,green,arrow-stim ,484,3013239,0.0-10.0-0.93 ,41014,,0,repeat
41014,1,847,80,56,124,68,20,blue,arrow-stim ,485,3017612,0.0-10.0-0.94 ,41014,,1,switch
41014,1,629,380,323,413,90,24,green,arrow-stim ,486,3021760,0.0-10.0-0.95 ,41014,,0,switch
41014,1,746,160,106,189,83,25,green,arrow-stim ,487,3026028,0.0-10.0-0.96 ,41014,,0,repeat
41014,1,637,-80,-56,-133,77,29,blue,arrow-stim ,488,3030189,0.0-10.0-0.97 ,41014,,1,switch
41014,1,1920,380,345,437,92,22,blue,arrow-stim ,489,3035626,0.0-10.0-0.98 ,41014,,1,repeat
41014,1,905,40,67,-19,86,32,green,arrow-stim ,490,3040059,0.0-10.0-0.99 ,41014,,0,switch
41014,0,618,160,188,106,82,26,green,arrow-stim ,491,3044206,0.0-10.0-0.100 ,41014,,1,switch
41014,1,696,80,118,22,96,20,green,arrow-stim ,492,3048430,0.0-10.0-0.101 ,41014,,0,switch
41014,1,581,380,322,415,93,23,green,arrow-stim ,493,3052540,0.0-10.0-0.102 ,41014,,0,repeat
41014,1,488,160,123,219,96,22,blue,arrow-stim ,494,3056550,0.0-10.0-0.103 ,41014,,1,switch
41014,1,572,40,77,-17,94,20,green,arrow-stim ,495,3060641,0.0-10.0-0.104 ,41014,,0,switch
41014,1,527,-80,-137,-43,94,20,blue,arrow-stim ,496,3064695,0.0-10.0-0.105 ,41014,,1,switch
41014,0,727,-80,-111,-28,83,21,green,arrow-stim ,497,3068958,0.0-10.0-0.106 ,41014,,1,repeat
41014,1,847,-80,-45,-138,93,23,blue,arrow-stim ,498,3073335,0.0-10.0-0.107 ,41014,,1,repeat
41014,0,1906,40,99,3,96,22,blue,arrow-stim ,499,3078770,0.0-10.0-0.108 ,41014,,0,switch
41014,1,914,-80,-27,-113,86,20,green,arrow-stim ,500,3083204,0.0-10.0-0.109 ,41014,,0,repeat
41014,1,1972,160,139,201,62,20,blue,arrow-stim ,501,3088718,0.0-10.0-0.110 ,41014,,1,switch
41014,1,1025,80,114,26,88,20,green,arrow-stim ,502,3093273,0.0-10.0-0.111 ,41014,,0,switch
41014,1,1238,80,35,101,66,24,green,arrow-stim ,503,3098033,0.0-10.0-0.112 ,41014,,0,repeat
41014,1,517,380,407,326,81,27,green,arrow-stim ,504,3102090,0.0-10.0-0.113 ,41014,,0,repeat
41014,1,743,380,359,427,68,26,blue,arrow-stim ,505,3106371,0.0-10.0-0.114 ,41014,,1,switch
41014,1,604,-80,-46,-139,93,25,blue,arrow-stim ,506,3110497,0.0-10.0-0.115 ,41014,,1,repeat
41014,1,575,80,138,60,78,38,blue,arrow-stim ,507,3114601,0.0-10.0-0.116 ,41014,,1,repeat
41014,1,501,80,138,59,79,37,blue,arrow-stim ,508,3118652,0.0-10.0-0.117 ,41014,,1,repeat
41014,1,719,380,437,352,85,29,blue,arrow-stim ,509,3122893,0.0-10.0-0.118 ,41014,,1,repeat
41014,1,713,40,66,-19,85,33,green,arrow-stim ,510,3127132,0.0-10.0-0.119 ,41014,,0,switch
41014,1,959,160,118,180,62,22,green,arrow-stim ,511,3131628,0.0-10.0-0.120 ,41014,,0,repeat
41014,1,687,80,22,106,84,32,green,arrow-stim ,512,3135846,0.0-10.0-0.121 ,41014,,0,repeat
41014,1,493,80,25,111,86,24,green,arrow-stim ,513,3139860,0.0-10.0-0.122 ,41014,,0,repeat
41014,1,735,380,324,414,90,22,green,arrow-stim ,514,3144122,0.0-10.0-0.123 ,41014,,0,repeat
41014,1,956,380,405,322,83,33,green,arrow-stim ,515,3148600,0.0-10.0-0.124 ,41014,,0,repeat
40716,1,1185,178,127,204,77,25,blue,arrow-stim ,3,35019,0.0-2.0-0.1 ,40716,,1,switch
40716,1,1010,58,-1,81,82,36,blue,arrow-stim ,4,40310,0.0-2.0-0.2 ,40716,,1,repeat
40716,1,908,178,207,122,85,27,blue,arrow-stim ,5,45490,0.0-2.0-0.3 ,40716,,1,repeat
40716,1,1033,-62,-42,-106,64,24,green,arrow-stim ,6,50798,0.0-2.0-0.4 ,40716,,0,switch
40716,0,1000,98,130,42,88,24,blue,arrow-stim ,7,56065,0.0-2.0-0.5 ,40716,,0,repeat
40716,0,895,398,366,454,88,24,green,arrow-stim ,8,61234,0.0-2.0-0.6 ,40716,,1,switch
40716,1,821,178,209,119,90,28,blue,arrow-stim ,9,66314,0.0-2.0-0.7 ,40716,,1,repeat
40716,1,1077,98,124,48,76,24,blue,arrow-stim ,10,71669,0.0-2.0-0.8 ,40716,,1,repeat
40716,0,1753,-62,-7,-91,84,26,blue,arrow-stim ,11,77692,0.0-2.0-0.9 ,40716,,0,switch
40716,0,931,98,62,157,95,23,green,arrow-stim ,13,90197,0.0-4.0-0.0 ,40716,,1,switch
40716,0,1037,98,62,154,92,20,green,arrow-stim ,14,94747,0.0-4.0-0.1 ,40716,,1,repeat
40716,1,823,178,237,144,93,25,green,arrow-stim ,15,99093,0.0-4.0-0.2 ,40716,,0,switch
40716,1,620,-62,-39,-112,73,27,green,arrow-stim ,16,103235,0.0-4.0-0.3 ,40716,,0,repeat
40716,0,943,98,143,74,69,21,green,arrow-stim ,17,107698,0.0-4.0-0.4 ,40716,,1,switch
40716,0,1049,-62,-5,-97,92,22,blue,arrow-stim ,18,112260,0.0-4.0-0.5 ,40716,,0,switch
40716,1,685,-62,-6,-95,89,23,blue,arrow-stim ,19,116468,0.0-4.0-0.6 ,40716,,1,switch
40716,1,977,58,94,1,93,21,blue,arrow-stim ,20,120973,0.0-4.0-0.7 ,40716,,1,repeat
40716,1,844,-62,-118,-33,85,27,green,arrow-stim ,21,125340,0.0-4.0-0.8 ,40716,,0,switch
40716,1,783,58,83,1,82,32,blue,arrow-stim ,22,129654,0.0-4.0-0.9 ,40716,,1,switch
40716,1,613,178,215,121,94,20,blue,arrow-stim ,23,133784,0.0-4.0-0.10 ,40716,,1,repeat
40716,1,610,398,424,343,81,29,blue,arrow-stim ,24,137913,0.0-4.0-0.11 ,40716,,1,repeat
40716,1,876,398,343,424,81,29,blue,arrow-stim ,25,142308,0.0-4.0-0.12 ,40716,,1,repeat
40716,1,657,178,132,204,72,20,blue,arrow-stim ,26,146493,0.0-4.0-0.13 ,40716,,1,repeat
40716,1,546,58,113,37,76,34,green,arrow-stim ,27,150567,0.0-4.0-0.14 ,40716,,0,switch
40716,1,718,58,1,87,86,28,blue,arrow-stim ,28,154815,0.0-4.0-0.15 ,40716,,1,switch
40716,1,515,398,424,344,80,28,blue,arrow-stim ,29,158861,0.0-4.0-0.16 ,40716,,1,repeat
40716,1,771,398,376,450,74,30,green,arrow-stim ,30,163144,0.0-4.0-0.17 ,40716,,0,switch
40716,1,840,58,1,93,92,22,blue,arrow-stim ,31,167522,0.0-4.0-0.18 ,40716,,1,switch
40716,0,753,98,41,123,82,32,blue,arrow-stim ,32,171797,0.0-4.0-0.19 ,40716,,0,switch
40716,1,949,98,118,53,65,25,blue,arrow-stim ,33,176259,0.0-4.0-0.20 ,40716,,1,switch
40716,1,734,-62,-11,-84,73,29,blue,arrow-stim ,34,180503,0.0-4.0-0.21 ,40716,,1,repeat
40716,1,815,398,378,449,71,31,green,arrow-stim ,35,184833,0.0-4.0-0.22 ,40716,,0,switch
40716,0,842,178,226,154,72,24,green,arrow-stim ,36,189199,0.0-4.0-0.23 ,40716,,1,switch
40716,1,673,-62,-97,-6,91,21,blue,arrow-stim ,37,193399,0.0-4.0-0.24 ,40716,,1,repeat
40716,0,771,398,436,339,97,21,blue,arrow-stim ,38,197698,0.0-4.0-0.25 ,40716,,0,switch
40716,1,680,98,50,119,69,27,blue,arrow-stim ,39,201908,0.0-4.0-0.26 ,40716,,1,switch
40716,1,978,178,212,123,89,21,blue,arrow-stim ,40,206401,0.0-4.0-0.27 ,40716,,1,repeat
40716,1,639,178,202,121,81,33,blue,arrow-stim ,41,210580,0.0-4.0-0.28 ,40716,,1,repeat
40716,1,778,-62,-112,-32,80,20,green,arrow-stim ,42,214875,0.0-4.0-0.29 ,40716,,0,switch
40716,1,698,98,154,70,84,28,green,arrow-stim ,43,219096,0.0-4.0-0.30 ,40716,,0,repeat
40716,1,690,58,111,36,75,31,green,arrow-stim ,44,223307,0.0-4.0-0.31 ,40716,,0,repeat
40716,1,758,178,143,235,92,22,green,arrow-stim ,45,227577,0.0-4.0-0.32 ,40716,,0,repeat
40716,0,724,98,43,133,90,20,blue,arrow-stim ,46,231829,0.0-4.0-0.33 ,40716,,0,repeat
40716,1,659,178,121,211,90,24,blue,arrow-stim ,47,236033,0.0-4.0-0.34 ,40716,,1,switch
40716,0,966,398,344,425,81,27,blue,arrow-stim ,48,240528,0.0-4.0-0.35 ,40716,,0,switch
40716,0,709,58,26,110,84,20,green,arrow-stim ,49,244768,0.0-4.0-0.36 ,40716,,1,switch
40716,0,695,-62,-4,-100,96,20,blue,arrow-stim ,50,248997,0.0-4.0-0.37 ,40716,,0,switch
40716,0,729,178,237,150,87,31,green,arrow-stim ,51,253264,0.0-4.0-0.38 ,40716,,1,switch
40716,1,906,58,91,0,91,25,blue,arrow-stim ,52,257687,0.0-4.0-0.39 ,40716,,1,repeat
40716,1,668,398,364,452,88,20,green,arrow-stim ,53,261862,0.0-4.0-0.40 ,40716,,0,switch
40716,0,752,98,64,157,93,25,green,arrow-stim ,54,266131,0.0-4.0-0.41 ,40716,,1,switch
40716,1,730,98,127,45,82,24,blue,arrow-stim ,55,270398,0.0-4.0-0.42 ,40716,,1,repeat
40716,0,725,-62,-94,-8,86,22,blue,arrow-stim ,56,274648,0.0-4.0-0.43 ,40716,,0,switch
40716,1,727,98,124,52,72,20,blue,arrow-stim ,57,278905,0.0-4.0-0.44 ,40716,,1,switch
40716,1,732,178,235,158,77,37,green,arrow-stim ,58,283169,0.0-4.0-0.45 ,40716,,0,switch
40716,1,659,58,115,23,92,22,green,arrow-stim ,59,287360,0.0-4.0-0.46 ,40716,,0,repeat
40716,1,657,58,0,92,92,24,blue,arrow-stim ,60,291553,0.0-4.0-0.47 ,40716,,1,switch
40716,1,656,398,423,350,73,23,blue,arrow-stim ,61,295743,0.0-4.0-0.48 ,40716,,1,repeat
40716,0,719,58,0,94,94,22,blue,arrow-stim ,62,299999,0.0-4.0-0.49 ,40716,,0,switch
40716,0,733,398,369,448,79,21,green,arrow-stim ,63,304270,0.0-4.0-0.50 ,40716,,1,switch
40716,1,1265,398,453,371,82,28,green,arrow-stim ,64,309080,0.0-4.0-0.51 ,40716,,0,switch
40716,0,816,98,127,45,82,24,blue,arrow-stim ,65,313425,0.0-4.0-0.52 ,40716,,0,repeat
40716,1,659,178,154,234,80,32,green,arrow-stim ,66,317616,0.0-4.0-0.53 ,40716,,0,repeat
40716,0,693,-62,-91,-13,78,20,blue,arrow-stim ,67,321847,0.0-4.0-0.54 ,40716,,0,repeat
40716,1,793,58,33,111,78,28,green,arrow-stim ,68,326170,0.0-4.0-0.55 ,40716,,0,repeat
40716,1,741,178,201,127,74,28,blue,arrow-stim ,69,330448,0.0-4.0-0.56 ,40716,,1,switch
40716,1,1058,-62,-27,-121,94,24,green,arrow-stim ,70,335034,0.0-4.0-0.57 ,40716,,0,switch
40716,1,1696,178,199,134,65,23,blue,arrow-stim ,71,340274,0.0-4.0-0.58 ,40716,,1,switch
40716,0,936,58,85,7,78,24,blue,arrow-stim ,72,344725,0.0-4.0-0.59 ,40716,,0,switch
40716,1,617,-62,-89,-9,80,26,blue,arrow-stim ,73,348857,0.0-4.0-0.60 ,40716,,1,switch
40716,1,585,-62,-89,-11,78,24,blue,arrow-stim ,74,352958,0.0-4.0-0.61 ,40716,,1,repeat
40716,1,740,98,69,156,87,29,green,arrow-stim ,75,357211,0.0-4.0-0.62 ,40716,,0,switch
40716,1,637,178,226,152,74,22,green,arrow-stim ,76,361367,0.0-4.0-0.63 ,40716,,0,repeat
40716,1,580,58,6,89,83,21,blue,arrow-stim ,77,365498,0.0-4.0-0.64 ,40716,,1,switch
40716,1,835,178,125,211,86,20,blue,arrow-stim ,78,369845,0.0-4.0-0.65 ,40716,,1,repeat
40716,1,874,398,452,368,84,24,green,arrow-stim ,79,374228,0.0-4.0-0.66 ,40716,,0,switch
40716,1,912,-62,-32,-119,87,27,green,arrow-stim ,80,378650,0.0-4.0-0.67 ,40716,,0,repeat
40716,1,747,-62,-100,-3,97,21,blue,arrow-stim ,81,382907,0.0-4.0-0.68 ,40716,,1,switch
40716,0,1087,-62,-89,-13,76,22,blue,arrow-stim ,82,387512,0.0-4.0-0.69 ,40716,,0,switch
40716,1,1466,98,136,39,97,21,blue,arrow-stim ,83,392506,0.0-4.0-0.70 ,40716,,1,switch
40716,0,707,178,153,226,73,23,green,arrow-stim ,84,396743,0.0-4.0-0.71 ,40716,,1,repeat
40716,1,912,98,43,132,89,21,blue,arrow-stim ,85,401188,0.0-4.0-0.72 ,40716,,1,repeat
40716,1,893,398,450,378,72,32,green,arrow-stim ,86,405606,0.0-4.0-0.73 ,40716,,0,switch
40716,1,769,398,446,371,75,21,green,arrow-stim ,87,409914,0.0-4.0-0.74 ,40716,,0,repeat
40716,0,919,-62,-30,-114,84,20,green,arrow-stim ,88,414349,0.0-4.0-0.75 ,40716,,1,switch
40716,1,788,178,152,228,76,24,green,arrow-stim ,89,418668,0.0-4.0-0.76 ,40716,,0,switch
40716,1,688,-62,-26,-121,95,23,green,arrow-stim ,90,422886,0.0-4.0-0.77 ,40716,,0,repeat
40716,1,692,58,103,33,70,20,green,arrow-stim ,91,427100,0.0-4.0-0.78 ,40716,,0,repeat
40716,1,804,178,125,204,79,27,blue,arrow-stim ,92,431422,0.0-4.0-0.79 ,40716,,1,switch
40716,0,750,98,69,157,88,30,green,arrow-stim ,93,435692,0.0-4.0-0.80 ,40716,,1,repeat
40716,1,1419,178,209,127,82,20,blue,arrow-stim ,94,440631,0.0-4.0-0.81 ,40716,,1,repeat
40716,1,937,398,362,457,95,23,green,arrow-stim ,95,445108,0.0-4.0-0.82 ,40716,,0,switch
40716,1,997,58,95,1,94,20,blue,arrow-stim ,96,449618,0.0-4.0-0.83 ,40716,,1,switch
40716,0,851,58,84,10,74,22,blue,arrow-stim ,97,453979,0.0-4.0-0.84 ,40716,,0,switch
40716,1,772,398,451,365,86,20,green,arrow-stim ,98,458263,0.0-4.0-0.85 ,40716,,0,repeat
40716,1,715,98,77,152,75,33,green,arrow-stim ,99,462502,0.0-4.0-0.86 ,40716,,0,repeat
40716,1,646,58,86,7,79,23,blue,arrow-stim ,100,466688,0.0-4.0-0.87 ,40716,,1,switch
40716,1,720,178,120,200,80,36,blue,arrow-stim ,101,470925,0.0-4.0-0.88 ,40716,,1,repeat
40716,1,827,-62,-27,-117,90,20,green,arrow-stim ,102,475278,0.0-4.0-0.89 ,40716,,0,switch
40716,0,946,-62,-112,-33,79,21,green,arrow-stim ,103,479749,0.0-4.0-0.90 ,40716,,1,switch
40716,1,1129,-62,-28,-120,92,24,green,arrow-stim ,104,484392,0.0-4.0-0.91 ,40716,,0,switch
40716,1,958,-62,-11,-93,82,20,blue,arrow-stim ,105,488875,0.0-4.0-0.92 ,40716,,1,switch
40716,1,1082,58,111,29,82,24,green,arrow-stim ,106,493467,0.0-4.0-0.93 ,40716,,0,switch
40716,1,791,398,426,344,82,26,blue,arrow-stim ,107,497768,0.0-4.0-0.94 ,40716,,1,switch
40716,1,844,398,454,364,90,22,green,arrow-stim ,108,502124,0.0-4.0-0.95 ,40716,,0,switch
40716,1,605,398,368,455,87,27,green,arrow-stim ,109,506260,0.0-4.0-0.96 ,40716,,0,repeat
40716,0,899,398,423,352,71,21,blue,arrow-stim ,110,510673,0.0-4.0-0.97 ,40716,,0,repeat
40716,1,3177,398,431,345,86,20,blue,arrow-stim ,111,517375,0.0-4.0-0.98 ,40716,,1,switch
40716,1,707,98,74,157,83,35,green,arrow-stim ,112,521611,0.0-4.0-0.99 ,40716,,0,switch
40716,1,678,398,421,343,78,32,blue,arrow-stim ,113,525823,0.0-4.0-0.100 ,40716,,1,switch
40716,0,856,98,42,130,88,24,blue,arrow-stim ,114,530215,0.0-4.0-0.101 ,40716,,0,switch
40716,1,793,98,155,61,94,20,green,arrow-stim ,115,534530,0.0-4.0-0.102 ,40716,,0,repeat
40716,1,641,398,428,342,86,26,blue,arrow-stim ,116,538681,0.0-4.0-0.103 ,40716,,1,switch
40716,1,719,58,-1,91,92,26,blue,arrow-stim ,117,542915,0.0-4.0-0.104 ,40716,,1,repeat
40716,1,611,398,454,362,92,20,green,arrow-stim ,118,547063,0.0-4.0-0.105 ,40716,,0,switch
40716,1,694,398,429,342,87,25,blue,arrow-stim ,119,551279,0.0-4.0-0.106 ,40716,,1,switch
40716,1,708,98,156,60,96,20,green,arrow-stim ,120,555521,0.0-4.0-0.107 ,40716,,0,switch
40716,1,747,58,111,33,78,28,green,arrow-stim ,121,559780,0.0-4.0-0.108 ,40716,,0,repeat
40716,1,901,-62,-111,-34,77,21,green,arrow-stim ,122,564206,0.0-4.0-0.109 ,40716,,0,repeat
40716,1,600,-62,-33,-120,87,29,green,arrow-stim ,123,568316,0.0-4.0-0.110 ,40716,,0,repeat
40716,1,1084,398,361,457,96,22,green,arrow-stim ,124,572929,0.0-4.0-0.111 ,40716,,0,repeat
