group,subjectid,block,trial,latency,accuracy,task,tasksequence
BI_C_Digit,9.0,1.0,1,1031.0,1.0,2.0,0.0
BI_C_Digit,9.0,1.0,2,1271.0,1.0,1.0,0.0
BI_C_Digit,9.0,1.0,3,611.0,1.0,2.0,ABA
BI_C_Digit,9.0,1.0,4,1399.0,1.0,3.0,CBA
BI_C_Digit,9.0,1.0,5,615.0,1.0,2.0,ABA
BI_C_Digit,9.0,1.0,6,401.0,1.0,1.0,CBA
BI_C_Digit,9.0,1.0,7,963.0,1.0,2.0,ABA
BI_C_Digit,9.0,1.0,8,584.0,1.0,3.0,CBA
BI_C_Digit,9.0,1.0,9,775.0,1.0,1.0,CBA
BI_C_Digit,9.0,1.0,10,641.0,1.0,2.0,CBA
BI_C_Digit,9.0,1.0,11,868.0,1.0,3.0,CBA
BI_C_Digit,9.0,1.0,12,437.0,1.0,1.0,CBA
BI_C_Digit,9.0,1.0,13,1306.0,1.0,3.0,ABA
BI_C_Digit,9.0,1.0,14,616.0,1.0,2.0,CBA
BI_C_Digit,9.0,1.0,15,565.0,1.0,1.0,CBA
BI_C_Digit,9.0,1.0,16,1052.0,1.0,3.0,CBA
BI_C_Digit,9.0,1.0,17,1519.0,1.0,1.0,ABA
BI_C_Digit,9.0,1.0,18,1033.0,1.0,3.0,ABA
BI_C_Digit,9.0,1.0,19,580.0,1.0,1.0,ABA
BI_C_Digit,9.0,1.0,20,1311.0,1.0,3.0,ABA
BI_C_Digit,9.0,1.0,21,1105.0,1.0,1.0,ABA
BI_C_Digit,9.0,1.0,22,1034.0,1.0,3.0,ABA
BI_C_Digit,9.0,1.0,23,460.0,1.0,2.0,CBA
BI_C_Digit,9.0,1.0,24,482.0,1.0,1.0,CBA
BI_C_Digit,9.0,1.0,25,379.0,1.0,2.0,ABA
BI_C_Digit,9.0,1.0,26,786.0,1.0,3.0,CBA
BI_C_Digit,9.0,1.0,27,531.0,1.0,2.0,ABA
BI_C_Digit,9.0,1.0,28,647.0,1.0,1.0,CBA
BI_C_Digit,9.0,1.0,29,709.0,1.0,3.0,CBA
BI_C_Digit,9.0,1.0,30,816.0,1.0,1.0,ABA
BI_C_Digit,9.0,1.0,31,804.0,1.0,3.0,ABA
BI_C_Digit,9.0,1.0,32,529.0,1.0,2.0,CBA
BI_C_Digit,9.0,1.0,33,718.0,1.0,1.0,CBA
BI_C_Digit,9.0,1.0,34,1249.0,1.0,2.0,ABA
BI_C_Digit,9.0,1.0,35,1341.0,1.0,3.0,CBA
BI_C_Digit,9.0,1.0,36,960.0,1.0,1.0,CBA
BI_C_Digit,9.0,1.0,37,470.0,1.0,2.0,CBA
BI_C_Digit,9.0,1.0,38,505.0,0.0,1.0,ABA
BI_C_Digit,9.0,1.0,39,935.0,1.0,3.0,CBA
BI_C_Digit,9.0,1.0,40,433.0,1.0,1.0,ABA
BI_C_Digit,9.0,1.0,41,2026.0,1.0,3.0,ABA
BI_C_Digit,9.0,1.0,42,920.0,1.0,1.0,ABA
BI_C_Digit,9.0,1.0,43,866.0,1.0,3.0,ABA
BI_C_Digit,9.0,1.0,44,444.0,1.0,1.0,ABA
BI_C_Digit,9.0,1.0,45,464.0,1.0,2.0,CBA
BI_C_Digit,9.0,1.0,46,713.0,1.0,1.0,ABA
BI_C_Digit,9.0,1.0,47,537.0,1.0,2.0,ABA
BI_C_Digit,9.0,1.0,48,1328.0,1.0,3.0,CBA
BI_C_Digit,9.0,1.0,49,1219.0,1.0,2.0,ABA
BI_C_Digit,9.0,1.0,50,709.0,1.0,3.0,ABA
BI_C_Digit,9.0,1.0,51,475.0,0.0,1.0,CBA
BI_C_Digit,9.0,1.0,52,813.0,1.0,3.0,ABA
BI_C_Digit,9.0,1.0,53,662.0,1.0,2.0,CBA
BI_C_Digit,9.0,1.0,54,588.0,1.0,1.0,CBA
BI_C_Digit,9.0,1.0,55,948.0,1.0,2.0,ABA
BI_C_Digit,9.0,1.0,56,874.0,1.0,1.0,ABA
BI_C_Digit,9.0,1.0,57,1219.0,0.0,3.0,CBA
BI_C_Digit,9.0,1.0,58,566.0,1.0,1.0,ABA
BI_C_Digit,9.0,1.0,59,1540.0,1.0,2.0,CBA
BI_C_Digit,9.0,1.0,60,1413.0,1.0,3.0,CBA
BI_C_Digit,9.0,1.0,61,1472.0,1.0,1.0,CBA
BI_C_Digit,9.0,1.0,62,1911.0,1.0,3.0,ABA
BI_C_Digit,9.0,1.0,63,896.0,1.0,1.0,ABA
BI_C_Digit,9.0,1.0,64,1133.0,1.0,2.0,CBA
BI_C_Digit,9.0,1.0,65,1063.0,1.0,3.0,CBA
BI_C_Digit,9.0,1.0,66,1350.0,1.0,1.0,CBA
BI_C_Digit,9.0,1.0,67,1980.0,1.0,3.0,ABA
BI_C_Digit,9.0,1.0,68,970.0,1.0,2.0,CBA
BI_C_Digit,9.0,1.0,69,601.0,1.0,1.0,CBA
BI_C_Digit,9.0,1.0,70,1875.0,1.0,3.0,CBA
BI_C_Digit,9.0,1.0,71,2435.0,1.0,1.0,ABA
BI_C_Digit,9.0,1.0,72,667.0,1.0,2.0,CBA
BI_C_Digit,9.0,1.0,73,565.0,1.0,1.0,ABA
BI_C_Digit,9.0,1.0,74,1155.0,0.0,2.0,ABA
BI_C_Digit,9.0,1.0,75,1113.0,1.0,3.0,CBA
BI_C_Digit,9.0,1.0,76,812.0,1.0,1.0,CBA
BI_C_Digit,9.0,1.0,77,2214.0,1.0,2.0,CBA
BI_C_Digit,9.0,1.0,78,720.0,1.0,1.0,ABA
BI_C_Digit,9.0,1.0,79,1458.0,1.0,3.0,CBA
BI_C_Digit,9.0,1.0,80,1360.0,1.0,2.0,CBA
BI_C_Digit,9.0,1.0,81,791.0,1.0,3.0,ABA
BI_C_Digit,9.0,1.0,82,570.0,1.0,2.0,ABA
BI_C_Digit,9.0,1.0,83,673.0,1.0,3.0,ABA
BI_C_Digit,9.0,1.0,84,1366.0,1.0,2.0,ABA
BI_C_Digit,9.0,1.0,85,1811.0,1.0,1.0,CBA
BI_C_Digit,9.0,1.0,86,1077.0,1.0,2.0,ABA
BI_C_Digit,9.0,1.0,87,968.0,1.0,3.0,CBA
BI_C_Digit,9.0,1.0,88,769.0,1.0,1.0,CBA
BI_C_Digit,9.0,1.0,89,1900.0,1.0,3.0,ABA
BI_C_Digit,9.0,1.0,90,1027.0,1.0,1.0,ABA
BI_C_Digit,9.0,1.0,91,2303.0,1.0,3.0,ABA
BI_C_Digit,9.0,1.0,92,834.0,1.0,1.0,ABA
BI_C_Digit,9.0,1.0,93,831.0,1.0,2.0,CBA
BI_C_Digit,9.0,1.0,94,1080.0,1.0,1.0,ABA
BI_C_Digit,9.0,1.0,95,1459.0,1.0,2.0,ABA
BI_C_Digit,9.0,1.0,96,1786.0,1.0,3.0,CBA
BI_C_Digit,9.0,1.0,97,1546.0,1.0,2.0,ABA
BI_C_Digit,9.0,1.0,98,737.0,0.0,3.0,ABA
BI_C_Digit,9.0,1.0,99,1368.0,1.0,2.0,ABA
BI_C_Digit,9.0,1.0,100,795.0,1.0,3.0,ABA
BI_C_Digit,9.0,1.0,101,755.0,1.0,2.0,ABA
BI_C_Digit,9.0,1.0,102,583.0,1.0,1.0,CBA
BI_C_Digit,9.0,1.0,103,1828.0,1.0,3.0,CBA
BI_C_Digit,9.0,1.0,104,925.0,1.0,2.0,CBA
BI_C_Digit,9.0,1.0,105,945.0,1.0,1.0,CBA
BI_C_Digit,9.0,1.0,106,1252.0,1.0,3.0,CBA
BI_C_Digit,9.0,1.0,107,1068.0,1.0,2.0,CBA
BI_C_Digit,9.0,1.0,108,628.0,0.0,1.0,CBA
BI_C_Digit,9.0,1.0,109,584.0,1.0,2.0,ABA
BI_C_Digit,9.0,1.0,110,1346.0,1.0,3.0,CBA
BI_C_Digit,9.0,1.0,111,1051.0,1.0,2.0,ABA
BI_C_Digit,9.0,1.0,112,735.0,1.0,1.0,CBA
BI_C_Digit,9.0,1.0,113,2350.0,1.0,3.0,CBA
BI_C_Digit,9.0,1.0,114,1504.0,1.0,2.0,CBA
BI_C_Digit,9.0,1.0,115,734.0,0.0,1.0,CBA
BI_C_Digit,9.0,1.0,116,675.0,1.0,2.0,ABA
BI_C_Digit,9.0,1.0,117,972.0,1.0,3.0,CBA
BI_C_Digit,9.0,1.0,118,1453.0,1.0,2.0,ABA
BI_C_Digit,9.0,1.0,119,2208.0,1.0,3.0,ABA
BI_C_Digit,9.0,1.0,120,1205.0,1.0,2.0,ABA
BI_C_Digit,9.0,2.0,1,842.0,1.0,3.0,0.0
BI_C_Digit,9.0,2.0,2,403.0,1.0,2.0,0.0
BI_C_Digit,9.0,2.0,3,621.0,1.0,3.0,ABA
BI_C_Digit,9.0,2.0,4,467.0,1.0,2.0,ABA
BI_C_Digit,9.0,2.0,5,661.0,1.0,3.0,ABA
BI_C_Digit,9.0,2.0,6,883.0,1.0,1.0,CBA
BI_C_Digit,9.0,2.0,7,520.0,1.0,2.0,CBA
BI_C_Digit,9.0,2.0,8,420.0,1.0,1.0,ABA
BI_C_Digit,9.0,2.0,9,459.0,1.0,2.0,ABA
BI_C_Digit,9.0,2.0,10,415.0,1.0,1.0,ABA
BI_C_Digit,9.0,2.0,11,691.0,1.0,2.0,ABA
BI_C_Digit,9.0,2.0,12,1006.0,1.0,3.0,CBA
BI_C_Digit,9.0,2.0,13,865.0,1.0,2.0,ABA
BI_C_Digit,9.0,2.0,14,1058.0,1.0,3.0,ABA
BI_C_Digit,9.0,2.0,15,1031.0,1.0,1.0,CBA
BI_C_Digit,9.0,2.0,16,1000.0,1.0,3.0,ABA
BI_C_Digit,9.0,2.0,17,719.0,1.0,1.0,ABA
BI_C_Digit,9.0,2.0,18,907.0,1.0,3.0,ABA
BI_C_Digit,9.0,2.0,19,677.0,1.0,1.0,ABA
BI_C_Digit,9.0,2.0,20,832.0,1.0,3.0,ABA
BI_C_Digit,9.0,2.0,21,626.0,1.0,2.0,CBA
BI_C_Digit,9.0,2.0,22,638.0,1.0,1.0,CBA
BI_C_Digit,9.0,2.0,23,540.0,1.0,3.0,CBA
BI_C_Digit,9.0,2.0,24,465.0,1.0,2.0,CBA
BI_C_Digit,9.0,2.0,25,788.0,1.0,3.0,ABA
BI_C_Digit,9.0,2.0,26,834.0,1.0,1.0,CBA
BI_C_Digit,9.0,2.0,27,503.0,1.0,2.0,CBA
BI_C_Digit,9.0,2.0,28,532.0,1.0,1.0,ABA
BI_C_Digit,9.0,2.0,29,1445.0,1.0,3.0,CBA
BI_C_Digit,9.0,2.0,30,1163.0,1.0,1.0,ABA
BI_C_Digit,9.0,2.0,31,1567.0,1.0,2.0,CBA
BI_C_Digit,9.0,2.0,32,934.0,0.0,1.0,ABA
BI_C_Digit,9.0,2.0,33,874.0,1.0,2.0,ABA
BI_C_Digit,9.0,2.0,34,613.0,1.0,3.0,CBA
BI_C_Digit,9.0,2.0,35,507.0,1.0,2.0,ABA
BI_C_Digit,9.0,2.0,36,1555.0,1.0,1.0,CBA
BI_C_Digit,9.0,2.0,37,758.0,1.0,2.0,ABA
BI_C_Digit,9.0,2.0,38,2536.0,1.0,3.0,CBA
BI_C_Digit,9.0,2.0,39,731.0,1.0,1.0,CBA
BI_C_Digit,9.0,2.0,40,2242.0,1.0,2.0,CBA
BI_C_Digit,9.0,2.0,41,1351.0,1.0,3.0,CBA
BI_C_Digit,9.0,2.0,42,2496.0,1.0,1.0,CBA
BI_C_Digit,9.0,2.0,43,1430.0,1.0,3.0,ABA
BI_C_Digit,9.0,2.0,44,1750.0,1.0,1.0,ABA
BI_C_Digit,9.0,2.0,45,476.0,1.0,2.0,CBA
BI_C_Digit,9.0,2.0,46,666.0,0.0,1.0,ABA
BI_C_Digit,9.0,2.0,47,520.0,1.0,3.0,CBA
BI_C_Digit,9.0,2.0,48,595.0,1.0,2.0,CBA
BI_C_Digit,9.0,2.0,49,490.0,1.0,1.0,CBA
BI_C_Digit,9.0,2.0,50,822.0,1.0,3.0,CBA
BI_C_Digit,9.0,2.0,51,468.0,1.0,2.0,CBA
BI_C_Digit,9.0,2.0,52,1318.0,1.0,3.0,ABA
BI_C_Digit,9.0,2.0,53,562.0,1.0,1.0,CBA
BI_C_Digit,9.0,2.0,54,1190.0,1.0,2.0,CBA
BI_C_Digit,9.0,2.0,55,1607.0,1.0,3.0,CBA
BI_C_Digit,9.0,2.0,56,756.0,1.0,2.0,ABA
BI_C_Digit,9.0,2.0,57,483.0,1.0,1.0,CBA
BI_C_Digit,9.0,2.0,58,612.0,1.0,2.0,ABA
BI_C_Digit,9.0,2.0,59,882.0,0.0,3.0,CBA
BI_C_Digit,9.0,2.0,60,779.0,1.0,1.0,CBA
BI_C_Digit,9.0,2.0,61,860.0,1.0,2.0,CBA
BI_C_Digit,9.0,2.0,62,617.0,1.0,1.0,ABA
BI_C_Digit,9.0,2.0,63,2313.0,1.0,2.0,ABA
BI_C_Digit,9.0,2.0,64,831.0,1.0,3.0,CBA
BI_C_Digit,9.0,2.0,65,901.0,1.0,2.0,ABA
BI_C_Digit,9.0,2.0,66,640.0,1.0,3.0,ABA
BI_C_Digit,9.0,2.0,67,583.0,1.0,1.0,CBA
BI_C_Digit,9.0,2.0,68,1027.0,1.0,2.0,CBA
BI_C_Digit,9.0,2.0,69,2344.0,1.0,3.0,CBA
BI_C_Digit,9.0,2.0,70,952.0,1.0,1.0,CBA
BI_C_Digit,9.0,2.0,71,1131.0,1.0,2.0,CBA
BI_C_Digit,9.0,2.0,72,428.0,1.0,1.0,ABA
BI_C_Digit,9.0,2.0,73,743.0,1.0,2.0,ABA
BI_C_Digit,9.0,2.0,74,884.0,1.0,1.0,ABA
BI_C_Digit,9.0,2.0,75,819.0,1.0,3.0,CBA
BI_C_Digit,9.0,2.0,76,902.0,0.0,1.0,ABA
BI_C_Digit,9.0,2.0,77,594.0,1.0,2.0,CBA
BI_C_Digit,9.0,2.0,78,2525.0,1.0,3.0,CBA
BI_C_Digit,9.0,2.0,79,1166.0,1.0,2.0,ABA
BI_C_Digit,9.0,2.0,80,1759.0,1.0,1.0,CBA
BI_C_Digit,9.0,2.0,81,788.0,1.0,2.0,ABA
BI_C_Digit,9.0,2.0,82,1458.0,1.0,1.0,ABA
BI_C_Digit,9.0,2.0,83,1698.0,1.0,2.0,ABA
BI_C_Digit,9.0,2.0,84,557.0,1.0,3.0,CBA
BI_C_Digit,9.0,2.0,85,553.0,1.0,2.0,ABA
BI_C_Digit,9.0,2.0,86,1758.0,1.0,3.0,ABA
BI_C_Digit,9.0,2.0,87,1065.0,1.0,2.0,ABA
BI_C_Digit,9.0,2.0,88,1611.0,1.0,1.0,CBA
BI_C_Digit,9.0,2.0,89,950.0,1.0,2.0,ABA
BI_C_Digit,9.0,2.0,90,926.0,1.0,3.0,CBA
BI_C_Digit,9.0,2.0,91,718.0,1.0,1.0,CBA
BI_C_Digit,9.0,2.0,92,628.0,1.0,3.0,ABA
BI_C_Digit,9.0,2.0,93,755.0,1.0,1.0,ABA
BI_C_Digit,9.0,2.0,94,783.0,0.0,3.0,ABA
BI_C_Digit,9.0,2.0,95,486.0,1.0,2.0,CBA
BI_C_Digit,9.0,2.0,96,832.0,1.0,1.0,CBA
BI_C_Digit,9.0,2.0,97,387.0,1.0,2.0,ABA
BI_C_Digit,9.0,2.0,98,767.0,1.0,3.0,CBA
BI_C_Digit,9.0,2.0,99,783.0,1.0,2.0,ABA
BI_C_Digit,9.0,2.0,100,1057.0,0.0,3.0,ABA
BI_C_Digit,9.0,2.0,101,495.0,1.0,1.0,CBA
BI_C_Digit,9.0,2.0,102,390.0,1.0,2.0,CBA
BI_C_Digit,9.0,2.0,103,938.0,1.0,1.0,ABA
BI_C_Digit,9.0,2.0,104,1028.0,1.0,3.0,CBA
BI_C_Digit,9.0,2.0,105,1205.0,1.0,2.0,CBA
BI_C_Digit,9.0,2.0,106,724.0,1.0,1.0,CBA
BI_C_Digit,9.0,2.0,107,1520.0,1.0,3.0,CBA
BI_C_Digit,9.0,2.0,108,841.0,1.0,1.0,ABA
BI_C_Digit,9.0,2.0,109,887.0,1.0,3.0,ABA
BI_C_Digit,9.0,2.0,110,403.0,1.0,2.0,CBA
BI_C_Digit,9.0,2.0,111,1364.0,1.0,3.0,ABA
BI_C_Digit,9.0,2.0,112,578.0,1.0,1.0,CBA
BI_C_Digit,9.0,2.0,113,1434.0,1.0,3.0,ABA
BI_C_Digit,9.0,2.0,114,2341.0,0.0,1.0,ABA
BI_C_Digit,9.0,2.0,115,1424.0,1.0,3.0,ABA
BI_C_Digit,9.0,2.0,116,743.0,1.0,1.0,ABA
BI_C_Digit,9.0,2.0,117,921.0,1.0,3.0,ABA
BI_C_Digit,9.0,2.0,118,1170.0,1.0,1.0,ABA
BI_C_Digit,9.0,2.0,119,784.0,1.0,3.0,ABA
BI_C_Digit,9.0,2.0,120,644.0,1.0,2.0,CBA
BI_C_Digit,9.0,3.0,1,742.0,1.0,3.0,0.0
BI_C_Digit,9.0,3.0,2,774.0,1.0,2.0,0.0
BI_C_Digit,9.0,3.0,3,1165.0,0.0,3.0,ABA
BI_C_Digit,9.0,3.0,4,389.0,1.0,1.0,CBA
BI_C_Digit,9.0,3.0,5,1391.0,1.0,3.0,ABA
BI_C_Digit,9.0,3.0,6,834.0,1.0,2.0,CBA
BI_C_Digit,9.0,3.0,7,633.0,0.0,1.0,CBA
BI_C_Digit,9.0,3.0,8,740.0,1.0,3.0,CBA
BI_C_Digit,9.0,3.0,9,455.0,1.0,1.0,ABA
BI_C_Digit,9.0,3.0,10,1161.0,1.0,3.0,ABA
BI_C_Digit,9.0,3.0,11,1005.0,1.0,2.0,CBA
BI_C_Digit,9.0,3.0,12,636.0,1.0,1.0,CBA
BI_C_Digit,9.0,3.0,13,1443.0,1.0,3.0,CBA
BI_C_Digit,9.0,3.0,14,712.0,1.0,2.0,CBA
BI_C_Digit,9.0,3.0,15,902.0,1.0,3.0,ABA
BI_C_Digit,9.0,3.0,16,632.0,1.0,1.0,CBA
BI_C_Digit,9.0,3.0,17,857.0,1.0,3.0,ABA
BI_C_Digit,9.0,3.0,18,847.0,1.0,1.0,ABA
BI_C_Digit,9.0,3.0,19,1443.0,1.0,2.0,CBA
BI_C_Digit,9.0,3.0,20,706.0,1.0,3.0,CBA
BI_C_Digit,9.0,3.0,21,893.0,1.0,1.0,CBA
BI_C_Digit,9.0,3.0,22,1066.0,1.0,3.0,ABA
BI_C_Digit,9.0,3.0,23,1148.0,1.0,1.0,ABA
BI_C_Digit,9.0,3.0,24,2878.0,1.0,2.0,CBA
BI_C_Digit,9.0,3.0,25,933.0,1.0,1.0,ABA
BI_C_Digit,9.0,3.0,26,1313.0,1.0,2.0,ABA
BI_C_Digit,9.0,3.0,27,1051.0,1.0,3.0,CBA
BI_C_Digit,9.0,3.0,28,807.0,1.0,1.0,CBA
BI_C_Digit,9.0,3.0,29,1129.0,1.0,3.0,ABA
BI_C_Digit,9.0,3.0,30,1465.0,1.0,2.0,CBA
BI_C_Digit,9.0,3.0,31,618.0,1.0,1.0,CBA
BI_C_Digit,9.0,3.0,32,752.0,1.0,2.0,ABA
BI_C_Digit,9.0,3.0,33,968.0,1.0,3.0,CBA
BI_C_Digit,9.0,3.0,34,770.0,1.0,1.0,CBA
BI_C_Digit,9.0,3.0,35,454.0,1.0,3.0,ABA
BI_C_Digit,9.0,3.0,36,1043.0,1.0,2.0,CBA
BI_C_Digit,9.0,3.0,37,424.0,1.0,1.0,CBA
BI_C_Digit,9.0,3.0,38,585.0,1.0,2.0,ABA
BI_C_Digit,9.0,3.0,39,629.0,1.0,3.0,CBA
BI_C_Digit,9.0,3.0,40,1199.0,1.0,2.0,ABA
BI_C_Digit,9.0,3.0,41,1421.0,1.0,1.0,CBA
BI_C_Digit,9.0,3.0,42,3524.0,1.0,2.0,ABA
BI_C_Digit,9.0,3.0,43,973.0,1.0,1.0,ABA
BI_C_Digit,9.0,3.0,44,990.0,1.0,3.0,CBA
BI_C_Digit,9.0,3.0,45,607.0,1.0,2.0,CBA
BI_C_Digit,9.0,3.0,46,398.0,1.0,1.0,CBA
BI_C_Digit,9.0,3.0,47,415.0,1.0,2.0,ABA
BI_C_Digit,9.0,3.0,48,1751.0,1.0,3.0,CBA
BI_C_Digit,9.0,3.0,49,925.0,1.0,2.0,ABA
BI_C_Digit,9.0,3.0,50,601.0,1.0,3.0,ABA
BI_C_Digit,9.0,3.0,51,930.0,1.0,2.0,ABA
BI_C_Digit,9.0,3.0,52,446.0,1.0,1.0,CBA
BI_C_Digit,9.0,3.0,53,671.0,1.0,3.0,CBA
BI_C_Digit,9.0,3.0,54,1675.0,1.0,2.0,CBA
BI_C_Digit,9.0,3.0,55,1061.0,1.0,3.0,ABA
BI_C_Digit,9.0,3.0,56,1780.0,1.0,2.0,ABA
BI_C_Digit,9.0,3.0,57,838.0,1.0,3.0,ABA
BI_C_Digit,9.0,3.0,58,467.0,1.0,2.0,ABA
BI_C_Digit,9.0,3.0,59,698.0,1.0,3.0,ABA
BI_C_Digit,9.0,3.0,60,1026.0,1.0,2.0,ABA
BI_C_Digit,9.0,3.0,61,1402.0,1.0,3.0,ABA
BI_C_Digit,9.0,3.0,62,540.0,1.0,1.0,CBA
BI_C_Digit,9.0,3.0,63,674.0,1.0,3.0,ABA
BI_C_Digit,9.0,3.0,64,780.0,1.0,1.0,ABA
BI_C_Digit,9.0,3.0,65,890.0,1.0,2.0,CBA
BI_C_Digit,9.0,3.0,66,606.0,1.0,1.0,ABA
BI_C_Digit,9.0,3.0,67,1458.0,1.0,2.0,ABA
BI_C_Digit,9.0,3.0,68,541.0,1.0,3.0,CBA
BI_C_Digit,9.0,3.0,69,1519.0,1.0,1.0,CBA
BI_C_Digit,9.0,3.0,70,768.0,1.0,2.0,CBA
BI_C_Digit,9.0,3.0,71,866.0,0.0,3.0,CBA
BI_C_Digit,9.0,3.0,72,3775.0,1.0,2.0,ABA
BI_C_Digit,9.0,3.0,73,1596.0,1.0,3.0,ABA
BI_C_Digit,9.0,3.0,74,1262.0,1.0,1.0,CBA
BI_C_Digit,9.0,3.0,75,519.0,1.0,2.0,CBA
BI_C_Digit,9.0,3.0,76,525.0,1.0,1.0,ABA
BI_C_Digit,9.0,3.0,77,700.0,1.0,2.0,ABA
BI_C_Digit,9.0,3.0,78,763.0,0.0,3.0,CBA
BI_C_Digit,9.0,3.0,79,884.0,1.0,1.0,CBA
BI_C_Digit,9.0,3.0,80,1742.0,1.0,2.0,CBA
BI_C_Digit,9.0,3.0,81,447.0,1.0,1.0,ABA
BI_C_Digit,9.0,3.0,82,1491.0,1.0,3.0,CBA
BI_C_Digit,9.0,3.0,83,558.0,1.0,2.0,CBA
BI_C_Digit,9.0,3.0,84,525.0,0.0,1.0,CBA
BI_C_Digit,9.0,3.0,85,714.0,1.0,3.0,CBA
BI_C_Digit,9.0,3.0,86,703.0,1.0,1.0,ABA
BI_C_Digit,9.0,3.0,87,1786.0,1.0,3.0,ABA
BI_C_Digit,9.0,3.0,88,1039.0,1.0,1.0,ABA
BI_C_Digit,9.0,3.0,89,1797.0,1.0,3.0,ABA
BI_C_Digit,9.0,3.0,90,935.0,1.0,2.0,CBA
BI_C_Digit,9.0,3.0,91,1306.0,1.0,3.0,ABA
BI_C_Digit,9.0,3.0,92,1735.0,1.0,2.0,ABA
BI_C_Digit,9.0,3.0,93,438.0,1.0,1.0,CBA
BI_C_Digit,9.0,3.0,94,3400.0,1.0,3.0,CBA
BI_C_Digit,9.0,3.0,95,1408.0,1.0,2.0,CBA
BI_C_Digit,9.0,3.0,96,580.0,1.0,3.0,ABA
BI_C_Digit,9.0,3.0,97,521.0,1.0,1.0,CBA
BI_C_Digit,9.0,3.0,98,819.0,1.0,2.0,CBA
BI_C_Digit,9.0,3.0,99,1516.0,0.0,1.0,ABA
BI_C_Digit,9.0,3.0,100,1555.0,1.0,3.0,CBA
BI_C_Digit,9.0,3.0,101,805.0,1.0,1.0,ABA
BI_C_Digit,9.0,3.0,102,960.0,1.0,3.0,ABA
BI_C_Digit,9.0,3.0,103,914.0,1.0,2.0,CBA
BI_C_Digit,9.0,3.0,104,833.0,1.0,1.0,CBA
BI_C_Digit,9.0,3.0,105,2587.0,1.0,2.0,ABA
BI_C_Digit,9.0,3.0,106,397.0,1.0,1.0,ABA
BI_C_Digit,9.0,3.0,107,610.0,1.0,3.0,CBA
BI_C_Digit,9.0,3.0,108,774.0,1.0,1.0,ABA
BI_C_Digit,9.0,3.0,109,1217.0,1.0,3.0,ABA
BI_C_Digit,9.0,3.0,110,1984.0,1.0,2.0,CBA
BI_C_Digit,9.0,3.0,111,1076.0,1.0,1.0,CBA
BI_C_Digit,9.0,3.0,112,640.0,0.0,3.0,CBA
BI_C_Digit,9.0,3.0,113,1013.0,1.0,1.0,ABA
BI_C_Digit,9.0,3.0,114,1094.0,1.0,2.0,CBA
BI_C_Digit,9.0,3.0,115,2307.0,1.0,1.0,ABA
BI_C_Digit,9.0,3.0,116,573.0,1.0,2.0,ABA
BI_C_Digit,9.0,3.0,117,658.0,1.0,1.0,ABA
BI_C_Digit,9.0,3.0,118,1712.0,1.0,2.0,ABA
BI_C_Digit,9.0,3.0,119,714.0,1.0,1.0,ABA
BI_C_Digit,9.0,3.0,120,1312.0,1.0,2.0,ABA
BI_C_Digit,9.0,4.0,1,746.0,1.0,3.0,0.0
BI_C_Digit,9.0,4.0,2,563.0,1.0,2.0,0.0
BI_C_Digit,9.0,4.0,3,1235.0,1.0,3.0,ABA
BI_C_Digit,9.0,4.0,4,698.0,1.0,2.0,ABA
BI_C_Digit,9.0,4.0,5,969.0,1.0,3.0,ABA
BI_C_Digit,9.0,4.0,6,792.0,1.0,2.0,ABA
BI_C_Digit,9.0,4.0,7,542.0,1.0,3.0,ABA
BI_C_Digit,9.0,4.0,8,767.0,1.0,2.0,ABA
BI_C_Digit,9.0,4.0,9,445.0,1.0,1.0,CBA
BI_C_Digit,9.0,4.0,10,720.0,1.0,2.0,ABA
BI_C_Digit,9.0,4.0,11,943.0,0.0,1.0,ABA
BI_C_Digit,9.0,4.0,12,714.0,1.0,2.0,ABA
BI_C_Digit,9.0,4.0,13,766.0,1.0,1.0,ABA
BI_C_Digit,9.0,4.0,14,531.0,1.0,3.0,CBA
BI_C_Digit,9.0,4.0,15,882.0,1.0,1.0,ABA
BI_C_Digit,9.0,4.0,16,495.0,1.0,3.0,ABA
BI_C_Digit,9.0,4.0,17,637.0,1.0,2.0,CBA
BI_C_Digit,9.0,4.0,18,487.0,1.0,1.0,CBA
BI_C_Digit,9.0,4.0,19,644.0,1.0,3.0,CBA
BI_C_Digit,9.0,4.0,20,709.0,0.0,2.0,CBA
BI_C_Digit,9.0,4.0,21,1133.0,1.0,1.0,CBA
BI_C_Digit,9.0,4.0,22,521.0,1.0,3.0,CBA
BI_C_Digit,9.0,4.0,23,414.0,1.0,2.0,CBA
BI_C_Digit,9.0,4.0,24,770.0,0.0,3.0,ABA
BI_C_Digit,9.0,4.0,25,1368.0,1.0,2.0,ABA
BI_C_Digit,9.0,4.0,26,383.0,1.0,1.0,CBA
BI_C_Digit,9.0,4.0,27,503.0,1.0,3.0,CBA
BI_C_Digit,9.0,4.0,28,490.0,1.0,2.0,CBA
BI_C_Digit,9.0,4.0,29,1223.0,1.0,3.0,ABA
BI_C_Digit,9.0,4.0,30,713.0,1.0,1.0,CBA
BI_C_Digit,9.0,4.0,31,668.0,1.0,3.0,ABA
BI_C_Digit,9.0,4.0,32,858.0,1.0,1.0,ABA
BI_C_Digit,9.0,4.0,33,596.0,1.0,2.0,CBA
BI_C_Digit,9.0,4.0,34,495.0,1.0,3.0,CBA
BI_C_Digit,9.0,4.0,35,739.0,1.0,1.0,CBA
BI_C_Digit,9.0,4.0,36,1084.0,1.0,2.0,CBA
BI_C_Digit,9.0,4.0,37,1352.0,1.0,3.0,CBA
BI_C_Digit,9.0,4.0,38,1153.0,0.0,1.0,CBA
BI_C_Digit,9.0,4.0,39,757.0,1.0,2.0,CBA
BI_C_Digit,9.0,4.0,40,706.0,1.0,1.0,ABA
BI_C_Digit,9.0,4.0,41,1891.0,1.0,2.0,ABA
BI_C_Digit,9.0,4.0,42,1167.0,1.0,3.0,CBA
BI_C_Digit,9.0,4.0,43,584.0,1.0,1.0,CBA
BI_C_Digit,9.0,4.0,44,1232.0,1.0,2.0,CBA
BI_C_Digit,9.0,4.0,45,696.0,1.0,1.0,ABA
BI_C_Digit,9.0,4.0,46,1637.0,1.0,3.0,CBA
BI_C_Digit,9.0,4.0,47,1576.0,1.0,1.0,ABA
BI_C_Digit,9.0,4.0,48,2283.0,1.0,3.0,ABA
BI_C_Digit,9.0,4.0,49,436.0,1.0,1.0,ABA
BI_C_Digit,9.0,4.0,50,685.0,1.0,3.0,ABA
BI_C_Digit,9.0,4.0,51,675.0,1.0,2.0,CBA
BI_C_Digit,9.0,4.0,52,1048.0,1.0,1.0,CBA
BI_C_Digit,9.0,4.0,53,1887.0,1.0,2.0,ABA
BI_C_Digit,9.0,4.0,54,765.0,0.0,3.0,CBA
BI_C_Digit,9.0,4.0,55,377.0,1.0,2.0,ABA
BI_C_Digit,9.0,4.0,56,479.0,1.0,1.0,CBA
BI_C_Digit,9.0,4.0,57,730.0,1.0,2.0,ABA
BI_C_Digit,9.0,4.0,58,604.0,1.0,1.0,ABA
BI_C_Digit,9.0,4.0,59,838.0,1.0,2.0,ABA
BI_C_Digit,9.0,4.0,60,691.0,0.0,1.0,ABA
BI_C_Digit,9.0,4.0,61,809.0,1.0,2.0,ABA
BI_C_Digit,9.0,4.0,62,476.0,1.0,1.0,ABA
BI_C_Digit,9.0,4.0,63,1816.0,1.0,3.0,CBA
BI_C_Digit,9.0,4.0,64,1417.0,0.0,2.0,CBA
BI_C_Digit,9.0,4.0,65,1010.0,1.0,1.0,CBA
BI_C_Digit,9.0,4.0,66,654.0,1.0,2.0,ABA
BI_C_Digit,9.0,4.0,67,695.0,1.0,1.0,ABA
BI_C_Digit,9.0,4.0,68,1649.0,1.0,3.0,CBA
BI_C_Digit,9.0,4.0,69,443.0,1.0,2.0,CBA
BI_C_Digit,9.0,4.0,70,727.0,0.0,1.0,CBA
BI_C_Digit,9.0,4.0,71,564.0,0.0,3.0,CBA
BI_C_Digit,9.0,4.0,72,641.0,1.0,2.0,CBA
BI_C_Digit,9.0,4.0,73,752.0,1.0,1.0,CBA
BI_C_Digit,9.0,4.0,74,536.0,1.0,2.0,ABA
BI_C_Digit,9.0,4.0,75,1231.0,1.0,3.0,CBA
BI_C_Digit,9.0,4.0,76,828.0,0.0,2.0,ABA
BI_C_Digit,9.0,4.0,77,615.0,1.0,3.0,ABA
BI_C_Digit,9.0,4.0,78,924.0,0.0,2.0,ABA
BI_C_Digit,9.0,4.0,79,668.0,1.0,1.0,CBA
BI_C_Digit,9.0,4.0,80,393.0,1.0,2.0,ABA
BI_C_Digit,9.0,4.0,81,1065.0,1.0,3.0,CBA
BI_C_Digit,9.0,4.0,82,602.0,1.0,2.0,ABA
BI_C_Digit,9.0,4.0,83,471.0,0.0,1.0,CBA
BI_C_Digit,9.0,4.0,84,616.0,1.0,3.0,CBA
BI_C_Digit,9.0,4.0,85,1266.0,1.0,2.0,CBA
BI_C_Digit,9.0,4.0,86,423.0,1.0,1.0,CBA
BI_C_Digit,9.0,4.0,87,1019.0,0.0,2.0,ABA
BI_C_Digit,9.0,4.0,88,501.0,1.0,1.0,ABA
BI_C_Digit,9.0,4.0,89,1944.0,1.0,3.0,CBA
BI_C_Digit,9.0,4.0,90,1611.0,1.0,1.0,ABA
BI_C_Digit,9.0,4.0,91,431.0,0.0,2.0,CBA
BI_C_Digit,9.0,4.0,92,715.0,1.0,1.0,ABA
BI_C_Digit,9.0,4.0,93,458.0,1.0,3.0,CBA
BI_C_Digit,9.0,4.0,94,362.0,1.0,2.0,CBA
BI_C_Digit,9.0,4.0,95,1158.0,1.0,3.0,ABA
BI_C_Digit,9.0,4.0,96,539.0,1.0,1.0,CBA
BI_C_Digit,9.0,4.0,97,1101.0,1.0,3.0,ABA
BI_C_Digit,9.0,4.0,98,1434.0,1.0,1.0,ABA
BI_C_Digit,9.0,4.0,99,1455.0,1.0,3.0,ABA
BI_C_Digit,9.0,4.0,100,634.0,1.0,1.0,ABA
BI_C_Digit,9.0,4.0,101,1508.0,0.0,2.0,CBA
BI_C_Digit,9.0,4.0,102,552.0,1.0,3.0,CBA
BI_C_Digit,9.0,4.0,103,813.0,1.0,1.0,CBA
BI_C_Digit,9.0,4.0,104,754.0,1.0,3.0,ABA
BI_C_Digit,9.0,4.0,105,498.0,1.0,2.0,CBA
BI_C_Digit,9.0,4.0,106,1802.0,1.0,3.0,ABA
BI_C_Digit,9.0,4.0,107,502.0,1.0,2.0,ABA
BI_C_Digit,9.0,4.0,108,423.0,1.0,1.0,CBA
BI_C_Digit,9.0,4.0,109,874.0,1.0,3.0,CBA
BI_C_Digit,9.0,4.0,110,455.0,1.0,1.0,ABA
BI_C_Digit,9.0,4.0,111,601.0,1.0,3.0,ABA
BI_C_Digit,9.0,4.0,112,787.0,1.0,1.0,ABA
BI_C_Digit,9.0,4.0,113,3655.0,1.0,3.0,ABA
BI_C_Digit,9.0,4.0,114,560.0,1.0,2.0,CBA
BI_C_Digit,9.0,4.0,115,790.0,1.0,1.0,CBA
BI_C_Digit,9.0,4.0,116,2569.0,1.0,3.0,CBA
BI_C_Digit,9.0,4.0,117,875.0,1.0,1.0,ABA
BI_C_Digit,9.0,4.0,118,686.0,1.0,3.0,ABA
BI_C_Digit,9.0,4.0,119,728.0,1.0,2.0,CBA
BI_C_Digit,9.0,4.0,120,656.0,1.0,3.0,ABA
BI_C_Digit,10.0,1.0,1,851.0,1.0,3.0,0.0
BI_C_Digit,10.0,1.0,2,896.0,1.0,2.0,0.0
BI_C_Digit,10.0,1.0,3,755.0,1.0,3.0,ABA
BI_C_Digit,10.0,1.0,4,798.0,1.0,2.0,ABA
BI_C_Digit,10.0,1.0,5,1102.0,1.0,3.0,ABA
BI_C_Digit,10.0,1.0,6,911.0,1.0,1.0,CBA
BI_C_Digit,10.0,1.0,7,921.0,1.0,2.0,CBA
BI_C_Digit,10.0,1.0,8,1054.0,1.0,1.0,ABA
BI_C_Digit,10.0,1.0,9,1039.0,0.0,2.0,ABA
BI_C_Digit,10.0,1.0,10,824.0,1.0,1.0,ABA
BI_C_Digit,10.0,1.0,11,1079.0,1.0,2.0,ABA
BI_C_Digit,10.0,1.0,12,1609.0,1.0,3.0,CBA
BI_C_Digit,10.0,1.0,13,1438.0,1.0,2.0,ABA
BI_C_Digit,10.0,1.0,14,1437.0,0.0,3.0,ABA
BI_C_Digit,10.0,1.0,15,1037.0,1.0,1.0,CBA
BI_C_Digit,10.0,1.0,16,1092.0,1.0,3.0,ABA
BI_C_Digit,10.0,1.0,17,1361.0,1.0,1.0,ABA
BI_C_Digit,10.0,1.0,18,1260.0,1.0,3.0,ABA
BI_C_Digit,10.0,1.0,19,1616.0,0.0,1.0,ABA
BI_C_Digit,10.0,1.0,20,967.0,1.0,3.0,ABA
BI_C_Digit,10.0,1.0,21,911.0,1.0,2.0,CBA
BI_C_Digit,10.0,1.0,22,1141.0,1.0,1.0,CBA
BI_C_Digit,10.0,1.0,23,942.0,1.0,3.0,CBA
BI_C_Digit,10.0,1.0,24,888.0,1.0,2.0,CBA
BI_C_Digit,10.0,1.0,25,1395.0,0.0,3.0,ABA
BI_C_Digit,10.0,1.0,26,1144.0,1.0,1.0,CBA
BI_C_Digit,10.0,1.0,27,902.0,1.0,2.0,CBA
BI_C_Digit,10.0,1.0,28,987.0,1.0,1.0,ABA
BI_C_Digit,10.0,1.0,29,681.0,1.0,3.0,CBA
BI_C_Digit,10.0,1.0,30,1092.0,0.0,1.0,ABA
BI_C_Digit,10.0,1.0,31,2274.0,1.0,2.0,CBA
BI_C_Digit,10.0,1.0,32,943.0,1.0,1.0,ABA
BI_C_Digit,10.0,1.0,33,943.0,1.0,2.0,ABA
BI_C_Digit,10.0,1.0,34,1122.0,1.0,3.0,CBA
BI_C_Digit,10.0,1.0,35,1867.0,1.0,2.0,ABA
BI_C_Digit,10.0,1.0,36,1373.0,1.0,1.0,CBA
BI_C_Digit,10.0,1.0,37,512.0,1.0,2.0,ABA
BI_C_Digit,10.0,1.0,38,1390.0,0.0,3.0,CBA
BI_C_Digit,10.0,1.0,39,522.0,1.0,1.0,CBA
BI_C_Digit,10.0,1.0,40,2065.0,1.0,2.0,CBA
BI_C_Digit,10.0,1.0,41,676.0,1.0,3.0,CBA
BI_C_Digit,10.0,1.0,42,973.0,1.0,1.0,CBA
BI_C_Digit,10.0,1.0,43,765.0,1.0,3.0,ABA
BI_C_Digit,10.0,1.0,44,598.0,1.0,1.0,ABA
BI_C_Digit,10.0,1.0,45,368.0,1.0,2.0,CBA
BI_C_Digit,10.0,1.0,46,1409.0,1.0,1.0,ABA
BI_C_Digit,10.0,1.0,47,718.0,1.0,3.0,CBA
BI_C_Digit,10.0,1.0,48,810.0,1.0,2.0,CBA
BI_C_Digit,10.0,1.0,49,1071.0,1.0,1.0,CBA
BI_C_Digit,10.0,1.0,50,875.0,1.0,3.0,CBA
BI_C_Digit,10.0,1.0,51,626.0,1.0,2.0,CBA
BI_C_Digit,10.0,1.0,52,491.0,1.0,3.0,ABA
BI_C_Digit,10.0,1.0,53,758.0,1.0,1.0,CBA
BI_C_Digit,10.0,1.0,54,646.0,1.0,2.0,CBA
BI_C_Digit,10.0,1.0,55,540.0,1.0,3.0,CBA
BI_C_Digit,10.0,1.0,56,840.0,1.0,2.0,ABA
BI_C_Digit,10.0,1.0,57,803.0,1.0,1.0,CBA
BI_C_Digit,10.0,1.0,58,1135.0,1.0,2.0,ABA
BI_C_Digit,10.0,1.0,59,685.0,1.0,3.0,CBA
BI_C_Digit,10.0,1.0,60,456.0,1.0,1.0,CBA
BI_C_Digit,10.0,1.0,61,462.0,1.0,2.0,CBA
BI_C_Digit,10.0,1.0,62,1349.0,1.0,1.0,ABA
BI_C_Digit,10.0,1.0,63,438.0,1.0,2.0,ABA
BI_C_Digit,10.0,1.0,64,450.0,1.0,3.0,CBA
BI_C_Digit,10.0,1.0,65,586.0,1.0,2.0,ABA
BI_C_Digit,10.0,1.0,66,781.0,1.0,3.0,ABA
BI_C_Digit,10.0,1.0,67,708.0,1.0,1.0,CBA
BI_C_Digit,10.0,1.0,68,764.0,1.0,2.0,CBA
BI_C_Digit,10.0,1.0,69,692.0,1.0,3.0,CBA
BI_C_Digit,10.0,1.0,70,807.0,1.0,1.0,CBA
BI_C_Digit,10.0,1.0,71,391.0,1.0,2.0,CBA
BI_C_Digit,10.0,1.0,72,496.0,1.0,1.0,ABA
BI_C_Digit,10.0,1.0,73,525.0,1.0,2.0,ABA
BI_C_Digit,10.0,1.0,74,961.0,1.0,1.0,ABA
BI_C_Digit,10.0,1.0,75,560.0,1.0,3.0,CBA
BI_C_Digit,10.0,1.0,76,733.0,0.0,1.0,ABA
BI_C_Digit,10.0,1.0,77,530.0,1.0,2.0,CBA
BI_C_Digit,10.0,1.0,78,1066.0,0.0,3.0,CBA
BI_C_Digit,10.0,1.0,79,830.0,1.0,2.0,ABA
BI_C_Digit,10.0,1.0,80,490.0,1.0,1.0,CBA
BI_C_Digit,10.0,1.0,81,382.0,1.0,2.0,ABA
BI_C_Digit,10.0,1.0,82,623.0,1.0,1.0,ABA
BI_C_Digit,10.0,1.0,83,430.0,1.0,2.0,ABA
BI_C_Digit,10.0,1.0,84,641.0,1.0,3.0,CBA
BI_C_Digit,10.0,1.0,85,568.0,1.0,2.0,ABA
BI_C_Digit,10.0,1.0,86,518.0,1.0,3.0,ABA
BI_C_Digit,10.0,1.0,87,547.0,1.0,2.0,ABA
BI_C_Digit,10.0,1.0,88,1022.0,0.0,1.0,CBA
BI_C_Digit,10.0,1.0,89,493.0,1.0,2.0,ABA
BI_C_Digit,10.0,1.0,90,588.0,0.0,3.0,CBA
BI_C_Digit,10.0,1.0,91,710.0,1.0,1.0,CBA
BI_C_Digit,10.0,1.0,92,574.0,1.0,3.0,ABA
BI_C_Digit,10.0,1.0,93,969.0,1.0,1.0,ABA
BI_C_Digit,10.0,1.0,94,517.0,1.0,3.0,ABA
BI_C_Digit,10.0,1.0,95,450.0,1.0,2.0,CBA
BI_C_Digit,10.0,1.0,96,1185.0,1.0,1.0,CBA
BI_C_Digit,10.0,1.0,97,1039.0,1.0,2.0,ABA
BI_C_Digit,10.0,1.0,98,489.0,1.0,3.0,CBA
BI_C_Digit,10.0,1.0,99,787.0,1.0,2.0,ABA
BI_C_Digit,10.0,1.0,100,478.0,1.0,3.0,ABA
BI_C_Digit,10.0,1.0,101,640.0,1.0,1.0,CBA
BI_C_Digit,10.0,1.0,102,688.0,1.0,2.0,CBA
BI_C_Digit,10.0,1.0,103,553.0,0.0,1.0,ABA
BI_C_Digit,10.0,1.0,104,570.0,1.0,3.0,CBA
BI_C_Digit,10.0,1.0,105,718.0,1.0,2.0,CBA
BI_C_Digit,10.0,1.0,106,524.0,1.0,1.0,CBA
BI_C_Digit,10.0,1.0,107,1204.0,0.0,3.0,CBA
BI_C_Digit,10.0,1.0,108,678.0,1.0,1.0,ABA
BI_C_Digit,10.0,1.0,109,763.0,1.0,3.0,ABA
BI_C_Digit,10.0,1.0,110,799.0,1.0,2.0,CBA
BI_C_Digit,10.0,1.0,111,556.0,0.0,3.0,ABA
BI_C_Digit,10.0,1.0,112,1378.0,1.0,1.0,CBA
BI_C_Digit,10.0,1.0,113,554.0,1.0,3.0,ABA
BI_C_Digit,10.0,1.0,114,1337.0,1.0,1.0,ABA
BI_C_Digit,10.0,1.0,115,726.0,1.0,3.0,ABA
BI_C_Digit,10.0,1.0,116,1143.0,1.0,1.0,ABA
BI_C_Digit,10.0,1.0,117,560.0,1.0,3.0,ABA
BI_C_Digit,10.0,1.0,118,1097.0,0.0,1.0,ABA
BI_C_Digit,10.0,1.0,119,1099.0,1.0,3.0,ABA
BI_C_Digit,10.0,1.0,120,591.0,1.0,2.0,CBA
BI_C_Digit,10.0,2.0,1,615.0,1.0,3.0,0.0
BI_C_Digit,10.0,2.0,2,612.0,1.0,2.0,0.0
BI_C_Digit,10.0,2.0,3,570.0,1.0,3.0,ABA
BI_C_Digit,10.0,2.0,4,534.0,1.0,1.0,CBA
BI_C_Digit,10.0,2.0,5,880.0,1.0,3.0,ABA
BI_C_Digit,10.0,2.0,6,555.0,1.0,2.0,CBA
BI_C_Digit,10.0,2.0,7,556.0,1.0,1.0,CBA
BI_C_Digit,10.0,2.0,8,957.0,1.0,3.0,CBA
BI_C_Digit,10.0,2.0,9,776.0,1.0,1.0,ABA
BI_C_Digit,10.0,2.0,10,607.0,1.0,3.0,ABA
BI_C_Digit,10.0,2.0,11,468.0,1.0,2.0,CBA
BI_C_Digit,10.0,2.0,12,472.0,1.0,1.0,CBA
BI_C_Digit,10.0,2.0,13,549.0,1.0,3.0,CBA
BI_C_Digit,10.0,2.0,14,703.0,1.0,2.0,CBA
BI_C_Digit,10.0,2.0,15,511.0,1.0,3.0,ABA
BI_C_Digit,10.0,2.0,16,425.0,1.0,1.0,CBA
BI_C_Digit,10.0,2.0,17,1155.0,1.0,3.0,ABA
BI_C_Digit,10.0,2.0,18,940.0,0.0,1.0,ABA
BI_C_Digit,10.0,2.0,19,614.0,1.0,2.0,CBA
BI_C_Digit,10.0,2.0,20,494.0,1.0,3.0,CBA
BI_C_Digit,10.0,2.0,21,486.0,0.0,1.0,CBA
BI_C_Digit,10.0,2.0,22,1239.0,0.0,3.0,ABA
BI_C_Digit,10.0,2.0,23,595.0,1.0,1.0,ABA
BI_C_Digit,10.0,2.0,24,519.0,1.0,2.0,CBA
BI_C_Digit,10.0,2.0,25,426.0,1.0,1.0,ABA
BI_C_Digit,10.0,2.0,26,475.0,1.0,2.0,ABA
BI_C_Digit,10.0,2.0,27,707.0,1.0,3.0,CBA
BI_C_Digit,10.0,2.0,28,1022.0,0.0,1.0,CBA
BI_C_Digit,10.0,2.0,29,516.0,1.0,3.0,ABA
BI_C_Digit,10.0,2.0,30,507.0,1.0,2.0,CBA
BI_C_Digit,10.0,2.0,31,601.0,1.0,1.0,CBA
BI_C_Digit,10.0,2.0,32,428.0,1.0,2.0,ABA
BI_C_Digit,10.0,2.0,33,463.0,1.0,3.0,CBA
BI_C_Digit,10.0,2.0,34,919.0,0.0,1.0,CBA
BI_C_Digit,10.0,2.0,35,517.0,1.0,3.0,ABA
BI_C_Digit,10.0,2.0,36,880.0,1.0,2.0,CBA
BI_C_Digit,10.0,2.0,37,637.0,1.0,1.0,CBA
BI_C_Digit,10.0,2.0,38,426.0,1.0,2.0,ABA
BI_C_Digit,10.0,2.0,39,396.0,1.0,3.0,CBA
BI_C_Digit,10.0,2.0,40,537.0,1.0,2.0,ABA
BI_C_Digit,10.0,2.0,41,364.0,1.0,1.0,CBA
BI_C_Digit,10.0,2.0,42,805.0,1.0,2.0,ABA
BI_C_Digit,10.0,2.0,43,669.0,1.0,1.0,ABA
BI_C_Digit,10.0,2.0,44,566.0,1.0,3.0,CBA
BI_C_Digit,10.0,2.0,45,481.0,1.0,2.0,CBA
BI_C_Digit,10.0,2.0,46,503.0,0.0,1.0,CBA
BI_C_Digit,10.0,2.0,47,546.0,1.0,2.0,ABA
BI_C_Digit,10.0,2.0,48,450.0,1.0,3.0,CBA
BI_C_Digit,10.0,2.0,49,946.0,1.0,2.0,ABA
BI_C_Digit,10.0,2.0,50,740.0,1.0,3.0,ABA
BI_C_Digit,10.0,2.0,51,605.0,1.0,2.0,ABA
BI_C_Digit,10.0,2.0,52,460.0,0.0,1.0,CBA
BI_C_Digit,10.0,2.0,53,404.0,0.0,3.0,CBA
BI_C_Digit,10.0,2.0,54,399.0,1.0,2.0,CBA
BI_C_Digit,10.0,2.0,55,649.0,1.0,3.0,ABA
BI_C_Digit,10.0,2.0,56,425.0,1.0,2.0,ABA
BI_C_Digit,10.0,2.0,57,572.0,1.0,3.0,ABA
BI_C_Digit,10.0,2.0,58,708.0,1.0,2.0,ABA
BI_C_Digit,10.0,2.0,59,482.0,1.0,3.0,ABA
BI_C_Digit,10.0,2.0,60,453.0,1.0,2.0,ABA
BI_C_Digit,10.0,2.0,61,730.0,1.0,3.0,ABA
BI_C_Digit,10.0,2.0,62,967.0,1.0,1.0,CBA
BI_C_Digit,10.0,2.0,63,597.0,1.0,3.0,ABA
BI_C_Digit,10.0,2.0,64,419.0,1.0,1.0,ABA
BI_C_Digit,10.0,2.0,65,458.0,1.0,2.0,CBA
BI_C_Digit,10.0,2.0,66,461.0,1.0,1.0,ABA
BI_C_Digit,10.0,2.0,67,363.0,1.0,2.0,ABA
BI_C_Digit,10.0,2.0,68,658.0,1.0,3.0,CBA
BI_C_Digit,10.0,2.0,69,1093.0,1.0,1.0,CBA
BI_C_Digit,10.0,2.0,70,477.0,1.0,2.0,CBA
BI_C_Digit,10.0,2.0,71,777.0,1.0,3.0,CBA
BI_C_Digit,10.0,2.0,72,440.0,1.0,2.0,ABA
BI_C_Digit,10.0,2.0,73,1153.0,1.0,3.0,ABA
BI_C_Digit,10.0,2.0,74,942.0,0.0,1.0,CBA
BI_C_Digit,10.0,2.0,75,592.0,1.0,2.0,CBA
BI_C_Digit,10.0,2.0,76,1724.0,1.0,1.0,ABA
BI_C_Digit,10.0,2.0,77,401.0,1.0,2.0,ABA
BI_C_Digit,10.0,2.0,78,1170.0,0.0,3.0,CBA
BI_C_Digit,10.0,2.0,79,689.0,1.0,1.0,CBA
BI_C_Digit,10.0,2.0,80,408.0,1.0,2.0,CBA
BI_C_Digit,10.0,2.0,81,488.0,1.0,1.0,ABA
BI_C_Digit,10.0,2.0,82,464.0,1.0,3.0,CBA
BI_C_Digit,10.0,2.0,83,993.0,1.0,2.0,CBA
BI_C_Digit,10.0,2.0,84,500.0,1.0,1.0,CBA
BI_C_Digit,10.0,2.0,85,664.0,1.0,3.0,CBA
BI_C_Digit,10.0,2.0,86,655.0,1.0,1.0,ABA
BI_C_Digit,10.0,2.0,87,485.0,1.0,3.0,ABA
BI_C_Digit,10.0,2.0,88,1019.0,1.0,1.0,ABA
BI_C_Digit,10.0,2.0,89,495.0,1.0,3.0,ABA
BI_C_Digit,10.0,2.0,90,530.0,1.0,2.0,CBA
BI_C_Digit,10.0,2.0,91,806.0,0.0,3.0,ABA
BI_C_Digit,10.0,2.0,92,1014.0,1.0,2.0,ABA
BI_C_Digit,10.0,2.0,93,431.0,1.0,1.0,CBA
BI_C_Digit,10.0,2.0,94,1455.0,1.0,3.0,CBA
BI_C_Digit,10.0,2.0,95,1120.0,1.0,2.0,CBA
BI_C_Digit,10.0,2.0,96,1092.0,1.0,3.0,ABA
BI_C_Digit,10.0,2.0,97,1122.0,1.0,1.0,CBA
BI_C_Digit,10.0,2.0,98,458.0,1.0,2.0,CBA
BI_C_Digit,10.0,2.0,99,452.0,1.0,1.0,ABA
BI_C_Digit,10.0,2.0,100,519.0,1.0,3.0,CBA
BI_C_Digit,10.0,2.0,101,624.0,1.0,1.0,ABA
BI_C_Digit,10.0,2.0,102,521.0,1.0,3.0,ABA
BI_C_Digit,10.0,2.0,103,375.0,1.0,2.0,CBA
BI_C_Digit,10.0,2.0,104,643.0,1.0,1.0,CBA
BI_C_Digit,10.0,2.0,105,335.0,1.0,2.0,ABA
BI_C_Digit,10.0,2.0,106,395.0,1.0,1.0,ABA
BI_C_Digit,10.0,2.0,107,432.0,1.0,3.0,CBA
BI_C_Digit,10.0,2.0,108,555.0,1.0,1.0,ABA
BI_C_Digit,10.0,2.0,109,1385.0,1.0,3.0,ABA
BI_C_Digit,10.0,2.0,110,794.0,1.0,2.0,CBA
BI_C_Digit,10.0,2.0,111,472.0,1.0,1.0,CBA
BI_C_Digit,10.0,2.0,112,504.0,0.0,3.0,CBA
BI_C_Digit,10.0,2.0,113,940.0,1.0,1.0,ABA
BI_C_Digit,10.0,2.0,114,805.0,1.0,2.0,CBA
BI_C_Digit,10.0,2.0,115,932.0,1.0,1.0,ABA
BI_C_Digit,10.0,2.0,116,563.0,1.0,2.0,ABA
BI_C_Digit,10.0,2.0,117,1204.0,1.0,1.0,ABA
BI_C_Digit,10.0,2.0,118,396.0,0.0,2.0,ABA
BI_C_Digit,10.0,2.0,119,393.0,1.0,1.0,ABA
BI_C_Digit,10.0,2.0,120,1437.0,1.0,2.0,ABA
BI_C_Digit,10.0,3.0,1,751.0,1.0,3.0,0.0
BI_C_Digit,10.0,3.0,2,600.0,1.0,2.0,0.0
BI_C_Digit,10.0,3.0,3,461.0,1.0,3.0,ABA
BI_C_Digit,10.0,3.0,4,337.0,1.0,2.0,ABA
BI_C_Digit,10.0,3.0,5,431.0,1.0,3.0,ABA
BI_C_Digit,10.0,3.0,6,446.0,1.0,2.0,ABA
BI_C_Digit,10.0,3.0,7,385.0,1.0,3.0,ABA
BI_C_Digit,10.0,3.0,8,574.0,1.0,2.0,ABA
BI_C_Digit,10.0,3.0,9,613.0,1.0,1.0,CBA
BI_C_Digit,10.0,3.0,10,479.0,1.0,2.0,ABA
BI_C_Digit,10.0,3.0,11,578.0,1.0,1.0,ABA
BI_C_Digit,10.0,3.0,12,474.0,1.0,2.0,ABA
BI_C_Digit,10.0,3.0,13,390.0,0.0,1.0,ABA
BI_C_Digit,10.0,3.0,14,793.0,0.0,3.0,CBA
BI_C_Digit,10.0,3.0,15,1187.0,1.0,1.0,ABA
BI_C_Digit,10.0,3.0,16,819.0,1.0,3.0,ABA
BI_C_Digit,10.0,3.0,17,450.0,1.0,2.0,CBA
BI_C_Digit,10.0,3.0,18,1174.0,1.0,1.0,CBA
BI_C_Digit,10.0,3.0,19,429.0,1.0,3.0,CBA
BI_C_Digit,10.0,3.0,20,716.0,1.0,2.0,CBA
BI_C_Digit,10.0,3.0,21,411.0,1.0,1.0,CBA
BI_C_Digit,10.0,3.0,22,478.0,1.0,3.0,CBA
BI_C_Digit,10.0,3.0,23,1010.0,1.0,2.0,CBA
BI_C_Digit,10.0,3.0,24,623.0,1.0,3.0,ABA
BI_C_Digit,10.0,3.0,25,596.0,0.0,2.0,ABA
BI_C_Digit,10.0,3.0,26,455.0,1.0,1.0,CBA
BI_C_Digit,10.0,3.0,27,563.0,1.0,3.0,CBA
BI_C_Digit,10.0,3.0,28,541.0,1.0,2.0,CBA
BI_C_Digit,10.0,3.0,29,691.0,1.0,3.0,ABA
BI_C_Digit,10.0,3.0,30,455.0,1.0,1.0,CBA
BI_C_Digit,10.0,3.0,31,919.0,0.0,3.0,ABA
BI_C_Digit,10.0,3.0,32,760.0,1.0,1.0,ABA
BI_C_Digit,10.0,3.0,33,523.0,1.0,2.0,CBA
BI_C_Digit,10.0,3.0,34,499.0,1.0,3.0,CBA
BI_C_Digit,10.0,3.0,35,735.0,0.0,1.0,CBA
BI_C_Digit,10.0,3.0,36,1246.0,1.0,2.0,CBA
BI_C_Digit,10.0,3.0,37,1211.0,1.0,3.0,CBA
BI_C_Digit,10.0,3.0,38,656.0,1.0,1.0,CBA
BI_C_Digit,10.0,3.0,39,467.0,1.0,2.0,CBA
BI_C_Digit,10.0,3.0,40,1092.0,0.0,1.0,ABA
BI_C_Digit,10.0,3.0,41,508.0,1.0,2.0,ABA
BI_C_Digit,10.0,3.0,42,547.0,1.0,3.0,CBA
BI_C_Digit,10.0,3.0,43,935.0,1.0,1.0,CBA
BI_C_Digit,10.0,3.0,44,466.0,1.0,2.0,CBA
BI_C_Digit,10.0,3.0,45,763.0,1.0,1.0,ABA
BI_C_Digit,10.0,3.0,46,480.0,0.0,3.0,CBA
BI_C_Digit,10.0,3.0,47,536.0,1.0,1.0,ABA
BI_C_Digit,10.0,3.0,48,458.0,1.0,3.0,ABA
BI_C_Digit,10.0,3.0,49,511.0,1.0,1.0,ABA
BI_C_Digit,10.0,3.0,50,474.0,1.0,3.0,ABA
BI_C_Digit,10.0,3.0,51,1068.0,1.0,2.0,CBA
BI_C_Digit,10.0,3.0,52,614.0,1.0,1.0,CBA
BI_C_Digit,10.0,3.0,53,396.0,1.0,2.0,ABA
BI_C_Digit,10.0,3.0,54,1610.0,0.0,3.0,CBA
BI_C_Digit,10.0,3.0,55,531.0,1.0,2.0,ABA
BI_C_Digit,10.0,3.0,56,867.0,1.0,1.0,CBA
BI_C_Digit,10.0,3.0,57,688.0,1.0,2.0,ABA
BI_C_Digit,10.0,3.0,58,784.0,1.0,1.0,ABA
BI_C_Digit,10.0,3.0,59,524.0,1.0,2.0,ABA
BI_C_Digit,10.0,3.0,60,1146.0,1.0,1.0,ABA
BI_C_Digit,10.0,3.0,61,523.0,1.0,2.0,ABA
BI_C_Digit,10.0,3.0,62,1010.0,1.0,1.0,ABA
BI_C_Digit,10.0,3.0,63,564.0,1.0,3.0,CBA
BI_C_Digit,10.0,3.0,64,880.0,1.0,2.0,CBA
BI_C_Digit,10.0,3.0,65,513.0,1.0,1.0,CBA
BI_C_Digit,10.0,3.0,66,1219.0,1.0,2.0,ABA
BI_C_Digit,10.0,3.0,67,695.0,0.0,1.0,ABA
BI_C_Digit,10.0,3.0,68,491.0,1.0,3.0,CBA
BI_C_Digit,10.0,3.0,69,873.0,1.0,2.0,CBA
BI_C_Digit,10.0,3.0,70,1157.0,1.0,1.0,CBA
BI_C_Digit,10.0,3.0,71,439.0,1.0,3.0,CBA
BI_C_Digit,10.0,3.0,72,463.0,1.0,2.0,CBA
BI_C_Digit,10.0,3.0,73,442.0,1.0,1.0,CBA
BI_C_Digit,10.0,3.0,74,1880.0,1.0,2.0,ABA
BI_C_Digit,10.0,3.0,75,449.0,1.0,3.0,CBA
BI_C_Digit,10.0,3.0,76,445.0,1.0,2.0,ABA
BI_C_Digit,10.0,3.0,77,1027.0,1.0,3.0,ABA
BI_C_Digit,10.0,3.0,78,425.0,1.0,2.0,ABA
BI_C_Digit,10.0,3.0,79,495.0,1.0,1.0,CBA
BI_C_Digit,10.0,3.0,80,374.0,1.0,2.0,ABA
BI_C_Digit,10.0,3.0,81,421.0,0.0,3.0,CBA
BI_C_Digit,10.0,3.0,82,375.0,1.0,2.0,ABA
BI_C_Digit,10.0,3.0,83,1199.0,1.0,1.0,CBA
BI_C_Digit,10.0,3.0,84,1339.0,1.0,3.0,CBA
BI_C_Digit,10.0,3.0,85,1108.0,1.0,2.0,CBA
BI_C_Digit,10.0,3.0,86,2794.0,1.0,1.0,CBA
BI_C_Digit,10.0,3.0,87,447.0,1.0,2.0,ABA
BI_C_Digit,10.0,3.0,88,533.0,0.0,1.0,ABA
BI_C_Digit,10.0,3.0,89,427.0,1.0,3.0,CBA
BI_C_Digit,10.0,3.0,90,974.0,1.0,1.0,ABA
BI_C_Digit,10.0,3.0,91,401.0,1.0,2.0,CBA
BI_C_Digit,10.0,3.0,92,385.0,1.0,1.0,ABA
BI_C_Digit,10.0,3.0,93,1325.0,1.0,3.0,CBA
BI_C_Digit,10.0,3.0,94,380.0,1.0,2.0,CBA
BI_C_Digit,10.0,3.0,95,473.0,1.0,3.0,ABA
BI_C_Digit,10.0,3.0,96,2323.0,1.0,1.0,CBA
BI_C_Digit,10.0,3.0,97,1038.0,1.0,3.0,ABA
BI_C_Digit,10.0,3.0,98,1201.0,0.0,1.0,ABA
BI_C_Digit,10.0,3.0,99,611.0,1.0,3.0,ABA
BI_C_Digit,10.0,3.0,100,1175.0,1.0,1.0,ABA
BI_C_Digit,10.0,3.0,101,577.0,1.0,2.0,CBA
BI_C_Digit,10.0,3.0,102,743.0,1.0,3.0,CBA
BI_C_Digit,10.0,3.0,103,604.0,1.0,1.0,CBA
BI_C_Digit,10.0,3.0,104,1295.0,0.0,3.0,ABA
BI_C_Digit,10.0,3.0,105,455.0,1.0,2.0,CBA
BI_C_Digit,10.0,3.0,106,1085.0,1.0,3.0,ABA
BI_C_Digit,10.0,3.0,107,1403.0,1.0,2.0,ABA
BI_C_Digit,10.0,3.0,108,2476.0,1.0,1.0,CBA
BI_C_Digit,10.0,3.0,109,498.0,1.0,3.0,CBA
BI_C_Digit,10.0,3.0,110,992.0,1.0,1.0,ABA
BI_C_Digit,10.0,3.0,111,2885.0,1.0,3.0,ABA
BI_C_Digit,10.0,3.0,112,3512.0,1.0,1.0,ABA
BI_C_Digit,10.0,3.0,113,501.0,1.0,3.0,ABA
BI_C_Digit,10.0,3.0,114,742.0,1.0,2.0,CBA
BI_C_Digit,10.0,3.0,115,1229.0,1.0,1.0,CBA
BI_C_Digit,10.0,3.0,116,423.0,1.0,3.0,CBA
BI_C_Digit,10.0,3.0,117,583.0,1.0,1.0,ABA
BI_C_Digit,10.0,3.0,118,429.0,1.0,3.0,ABA
BI_C_Digit,10.0,3.0,119,431.0,1.0,2.0,CBA
BI_C_Digit,10.0,3.0,120,1079.0,1.0,3.0,ABA
BI_C_Digit,10.0,4.0,1,555.0,1.0,2.0,0.0
BI_C_Digit,10.0,4.0,2,1762.0,1.0,1.0,0.0
BI_C_Digit,10.0,4.0,3,799.0,1.0,2.0,ABA
BI_C_Digit,10.0,4.0,4,1199.0,0.0,3.0,CBA
BI_C_Digit,10.0,4.0,5,486.0,1.0,2.0,ABA
BI_C_Digit,10.0,4.0,6,696.0,1.0,1.0,CBA
BI_C_Digit,10.0,4.0,7,417.0,1.0,2.0,ABA
BI_C_Digit,10.0,4.0,8,720.0,1.0,3.0,CBA
BI_C_Digit,10.0,4.0,9,909.0,0.0,1.0,CBA
BI_C_Digit,10.0,4.0,10,522.0,1.0,2.0,CBA
BI_C_Digit,10.0,4.0,11,2057.0,1.0,3.0,CBA
BI_C_Digit,10.0,4.0,12,390.0,1.0,1.0,CBA
BI_C_Digit,10.0,4.0,13,411.0,1.0,3.0,ABA
BI_C_Digit,10.0,4.0,14,994.0,1.0,2.0,CBA
BI_C_Digit,10.0,4.0,15,1343.0,1.0,1.0,CBA
BI_C_Digit,10.0,4.0,16,532.0,1.0,3.0,CBA
BI_C_Digit,10.0,4.0,17,3863.0,1.0,1.0,ABA
BI_C_Digit,10.0,4.0,18,1222.0,1.0,3.0,ABA
BI_C_Digit,10.0,4.0,19,405.0,1.0,1.0,ABA
BI_C_Digit,10.0,4.0,20,658.0,1.0,3.0,ABA
BI_C_Digit,10.0,4.0,21,1413.0,1.0,1.0,ABA
BI_C_Digit,10.0,4.0,22,423.0,1.0,3.0,ABA
BI_C_Digit,10.0,4.0,23,412.0,1.0,2.0,CBA
BI_C_Digit,10.0,4.0,24,1773.0,1.0,1.0,CBA
BI_C_Digit,10.0,4.0,25,429.0,1.0,2.0,ABA
BI_C_Digit,10.0,4.0,26,437.0,1.0,3.0,CBA
BI_C_Digit,10.0,4.0,27,481.0,1.0,2.0,ABA
BI_C_Digit,10.0,4.0,28,988.0,0.0,1.0,CBA
BI_C_Digit,10.0,4.0,29,1219.0,1.0,3.0,CBA
BI_C_Digit,10.0,4.0,30,1205.0,1.0,1.0,ABA
BI_C_Digit,10.0,4.0,31,750.0,1.0,3.0,ABA
BI_C_Digit,10.0,4.0,32,401.0,1.0,2.0,CBA
BI_C_Digit,10.0,4.0,33,2055.0,1.0,1.0,CBA
BI_C_Digit,10.0,4.0,34,784.0,1.0,2.0,ABA
BI_C_Digit,10.0,4.0,35,615.0,1.0,3.0,CBA
BI_C_Digit,10.0,4.0,36,616.0,1.0,1.0,CBA
BI_C_Digit,10.0,4.0,37,801.0,1.0,2.0,CBA
BI_C_Digit,10.0,4.0,38,390.0,1.0,1.0,ABA
BI_C_Digit,10.0,4.0,39,771.0,0.0,3.0,CBA
BI_C_Digit,10.0,4.0,40,518.0,1.0,1.0,ABA
BI_C_Digit,10.0,4.0,41,2490.0,1.0,3.0,ABA
BI_C_Digit,10.0,4.0,42,729.0,1.0,1.0,ABA
BI_C_Digit,10.0,4.0,43,392.0,1.0,3.0,ABA
BI_C_Digit,10.0,4.0,44,436.0,1.0,1.0,ABA
BI_C_Digit,10.0,4.0,45,442.0,1.0,2.0,CBA
BI_C_Digit,10.0,4.0,46,480.0,1.0,1.0,ABA
BI_C_Digit,10.0,4.0,47,1068.0,1.0,2.0,ABA
BI_C_Digit,10.0,4.0,48,432.0,1.0,3.0,CBA
BI_C_Digit,10.0,4.0,49,521.0,1.0,2.0,ABA
BI_C_Digit,10.0,4.0,50,499.0,1.0,3.0,ABA
BI_C_Digit,10.0,4.0,51,460.0,1.0,1.0,CBA
BI_C_Digit,10.0,4.0,52,472.0,1.0,3.0,ABA
BI_C_Digit,10.0,4.0,53,628.0,1.0,2.0,CBA
BI_C_Digit,10.0,4.0,54,830.0,1.0,1.0,CBA
BI_C_Digit,10.0,4.0,55,439.0,1.0,2.0,ABA
BI_C_Digit,10.0,4.0,56,771.0,0.0,1.0,ABA
BI_C_Digit,10.0,4.0,57,448.0,1.0,3.0,CBA
BI_C_Digit,10.0,4.0,58,934.0,1.0,1.0,ABA
BI_C_Digit,10.0,4.0,59,539.0,1.0,2.0,CBA
BI_C_Digit,10.0,4.0,60,1576.0,1.0,3.0,CBA
BI_C_Digit,10.0,4.0,61,483.0,1.0,1.0,CBA
BI_C_Digit,10.0,4.0,62,450.0,1.0,3.0,ABA
BI_C_Digit,10.0,4.0,63,927.0,1.0,1.0,ABA
BI_C_Digit,10.0,4.0,64,856.0,1.0,2.0,CBA
BI_C_Digit,10.0,4.0,65,508.0,1.0,3.0,CBA
BI_C_Digit,10.0,4.0,66,854.0,1.0,1.0,CBA
BI_C_Digit,10.0,4.0,67,542.0,1.0,3.0,ABA
BI_C_Digit,10.0,4.0,68,669.0,1.0,2.0,CBA
BI_C_Digit,10.0,4.0,69,617.0,1.0,1.0,CBA
BI_C_Digit,10.0,4.0,70,415.0,1.0,3.0,CBA
BI_C_Digit,10.0,4.0,71,638.0,1.0,1.0,ABA
BI_C_Digit,10.0,4.0,72,403.0,1.0,2.0,CBA
BI_C_Digit,10.0,4.0,73,921.0,1.0,1.0,ABA
BI_C_Digit,10.0,4.0,74,956.0,0.0,2.0,ABA
BI_C_Digit,10.0,4.0,75,363.0,1.0,3.0,CBA
BI_C_Digit,10.0,4.0,76,1672.0,1.0,1.0,CBA
BI_C_Digit,10.0,4.0,77,396.0,1.0,2.0,CBA
BI_C_Digit,10.0,4.0,78,434.0,1.0,1.0,ABA
BI_C_Digit,10.0,4.0,79,437.0,1.0,3.0,CBA
BI_C_Digit,10.0,4.0,80,858.0,1.0,2.0,CBA
BI_C_Digit,10.0,4.0,81,635.0,0.0,3.0,ABA
BI_C_Digit,10.0,4.0,82,715.0,1.0,2.0,ABA
BI_C_Digit,10.0,4.0,83,455.0,1.0,3.0,ABA
BI_C_Digit,10.0,4.0,84,459.0,1.0,2.0,ABA
BI_C_Digit,10.0,4.0,85,390.0,1.0,1.0,CBA
BI_C_Digit,10.0,4.0,86,588.0,1.0,2.0,ABA
BI_C_Digit,10.0,4.0,87,580.0,1.0,3.0,CBA
BI_C_Digit,10.0,4.0,88,2626.0,1.0,1.0,CBA
BI_C_Digit,10.0,4.0,89,458.0,1.0,3.0,ABA
BI_C_Digit,10.0,4.0,90,769.0,1.0,1.0,ABA
BI_C_Digit,10.0,4.0,91,463.0,1.0,3.0,ABA
BI_C_Digit,10.0,4.0,92,449.0,1.0,1.0,ABA
BI_C_Digit,10.0,4.0,93,365.0,1.0,2.0,CBA
BI_C_Digit,10.0,4.0,94,862.0,1.0,1.0,ABA
BI_C_Digit,10.0,4.0,95,1085.0,1.0,2.0,ABA
BI_C_Digit,10.0,4.0,96,479.0,1.0,3.0,CBA
BI_C_Digit,10.0,4.0,97,373.0,1.0,2.0,ABA
BI_C_Digit,10.0,4.0,98,575.0,1.0,3.0,ABA
BI_C_Digit,10.0,4.0,99,443.0,1.0,2.0,ABA
BI_C_Digit,10.0,4.0,100,926.0,1.0,3.0,ABA
BI_C_Digit,10.0,4.0,101,765.0,1.0,2.0,ABA
BI_C_Digit,10.0,4.0,102,787.0,1.0,1.0,CBA
BI_C_Digit,10.0,4.0,103,766.0,1.0,3.0,CBA
BI_C_Digit,10.0,4.0,104,355.0,1.0,2.0,CBA
BI_C_Digit,10.0,4.0,105,379.0,1.0,1.0,CBA
BI_C_Digit,10.0,4.0,106,426.0,1.0,3.0,CBA
BI_C_Digit,10.0,4.0,107,345.0,1.0,2.0,CBA
BI_C_Digit,10.0,4.0,108,1010.0,1.0,1.0,CBA
BI_C_Digit,10.0,4.0,109,439.0,1.0,2.0,ABA
BI_C_Digit,10.0,4.0,110,414.0,1.0,3.0,CBA
BI_C_Digit,10.0,4.0,111,369.0,1.0,2.0,ABA
BI_C_Digit,10.0,4.0,112,1549.0,1.0,1.0,CBA
BI_C_Digit,10.0,4.0,113,4491.0,0.0,3.0,CBA
BI_C_Digit,10.0,4.0,114,404.0,1.0,2.0,CBA
BI_C_Digit,10.0,4.0,115,936.0,1.0,1.0,CBA
BI_C_Digit,10.0,4.0,116,348.0,1.0,2.0,ABA
BI_C_Digit,10.0,4.0,117,390.0,1.0,3.0,CBA
BI_C_Digit,10.0,4.0,118,359.0,1.0,2.0,ABA
BI_C_Digit,10.0,4.0,119,380.0,1.0,3.0,ABA
BI_C_Digit,10.0,4.0,120,744.0,1.0,2.0,ABA
BI_C_Digit,11.0,1.0,1,714.0,1.0,3.0,0.0
BI_C_Digit,11.0,1.0,2,654.0,1.0,2.0,0.0
BI_C_Digit,11.0,1.0,3,581.0,0.0,3.0,ABA
BI_C_Digit,11.0,1.0,4,362.0,1.0,1.0,CBA
BI_C_Digit,11.0,1.0,5,636.0,1.0,3.0,ABA
BI_C_Digit,11.0,1.0,6,1059.0,1.0,2.0,CBA
BI_C_Digit,11.0,1.0,7,451.0,1.0,1.0,CBA
BI_C_Digit,11.0,1.0,8,623.0,1.0,3.0,CBA
BI_C_Digit,11.0,1.0,9,414.0,1.0,1.0,ABA
BI_C_Digit,11.0,1.0,10,502.0,1.0,3.0,ABA
BI_C_Digit,11.0,1.0,11,716.0,0.0,2.0,CBA
BI_C_Digit,11.0,1.0,12,467.0,1.0,1.0,CBA
BI_C_Digit,11.0,1.0,13,707.0,0.0,3.0,CBA
BI_C_Digit,11.0,1.0,14,579.0,1.0,2.0,CBA
BI_C_Digit,11.0,1.0,15,811.0,1.0,3.0,ABA
BI_C_Digit,11.0,1.0,16,564.0,1.0,1.0,CBA
BI_C_Digit,11.0,1.0,17,611.0,1.0,3.0,ABA
BI_C_Digit,11.0,1.0,18,665.0,1.0,1.0,ABA
BI_C_Digit,11.0,1.0,19,616.0,0.0,2.0,CBA
BI_C_Digit,11.0,1.0,20,571.0,0.0,3.0,CBA
BI_C_Digit,11.0,1.0,21,459.0,1.0,1.0,CBA
BI_C_Digit,11.0,1.0,22,891.0,1.0,3.0,ABA
BI_C_Digit,11.0,1.0,23,634.0,1.0,1.0,ABA
BI_C_Digit,11.0,1.0,24,1060.0,1.0,2.0,CBA
BI_C_Digit,11.0,1.0,25,649.0,1.0,1.0,ABA
BI_C_Digit,11.0,1.0,26,622.0,1.0,2.0,ABA
BI_C_Digit,11.0,1.0,27,884.0,0.0,3.0,CBA
BI_C_Digit,11.0,1.0,28,667.0,1.0,1.0,CBA
BI_C_Digit,11.0,1.0,29,653.0,1.0,3.0,ABA
BI_C_Digit,11.0,1.0,30,995.0,1.0,2.0,CBA
BI_C_Digit,11.0,1.0,31,473.0,1.0,1.0,CBA
BI_C_Digit,11.0,1.0,32,569.0,1.0,2.0,ABA
BI_C_Digit,11.0,1.0,33,1001.0,1.0,3.0,CBA
BI_C_Digit,11.0,1.0,34,459.0,1.0,1.0,CBA
BI_C_Digit,11.0,1.0,35,605.0,1.0,3.0,ABA
BI_C_Digit,11.0,1.0,36,817.0,1.0,2.0,CBA
BI_C_Digit,11.0,1.0,37,406.0,1.0,1.0,CBA
BI_C_Digit,11.0,1.0,38,676.0,0.0,2.0,ABA
BI_C_Digit,11.0,1.0,39,689.0,0.0,3.0,CBA
BI_C_Digit,11.0,1.0,40,1122.0,0.0,2.0,ABA
BI_C_Digit,11.0,1.0,41,879.0,1.0,1.0,CBA
BI_C_Digit,11.0,1.0,42,696.0,1.0,2.0,ABA
BI_C_Digit,11.0,1.0,43,445.0,1.0,1.0,ABA
BI_C_Digit,11.0,1.0,44,600.0,1.0,3.0,CBA
BI_C_Digit,11.0,1.0,45,1072.0,1.0,2.0,CBA
BI_C_Digit,11.0,1.0,46,528.0,1.0,1.0,CBA
BI_C_Digit,11.0,1.0,47,506.0,1.0,2.0,ABA
BI_C_Digit,11.0,1.0,48,734.0,1.0,3.0,CBA
BI_C_Digit,11.0,1.0,49,1064.0,1.0,2.0,ABA
BI_C_Digit,11.0,1.0,50,688.0,1.0,3.0,ABA
BI_C_Digit,11.0,1.0,51,945.0,0.0,2.0,ABA
BI_C_Digit,11.0,1.0,52,390.0,1.0,1.0,CBA
BI_C_Digit,11.0,1.0,53,908.0,0.0,3.0,CBA
BI_C_Digit,11.0,1.0,54,1188.0,0.0,2.0,CBA
BI_C_Digit,11.0,1.0,55,750.0,1.0,3.0,ABA
BI_C_Digit,11.0,1.0,56,699.0,0.0,2.0,ABA
BI_C_Digit,11.0,1.0,57,1032.0,1.0,3.0,ABA
BI_C_Digit,11.0,1.0,58,1060.0,1.0,2.0,ABA
BI_C_Digit,11.0,1.0,59,702.0,1.0,3.0,ABA
BI_C_Digit,11.0,1.0,60,1030.0,0.0,2.0,ABA
BI_C_Digit,11.0,1.0,61,1114.0,1.0,3.0,ABA
BI_C_Digit,11.0,1.0,62,313.0,1.0,1.0,CBA
BI_C_Digit,11.0,1.0,63,686.0,1.0,3.0,ABA
BI_C_Digit,11.0,1.0,64,616.0,1.0,1.0,ABA
BI_C_Digit,11.0,1.0,65,856.0,0.0,2.0,CBA
BI_C_Digit,11.0,1.0,66,574.0,1.0,1.0,ABA
BI_C_Digit,11.0,1.0,67,998.0,0.0,2.0,ABA
BI_C_Digit,11.0,1.0,68,641.0,1.0,3.0,CBA
BI_C_Digit,11.0,1.0,69,818.0,1.0,1.0,CBA
BI_C_Digit,11.0,1.0,70,750.0,1.0,2.0,CBA
BI_C_Digit,11.0,1.0,71,671.0,1.0,3.0,CBA
BI_C_Digit,11.0,1.0,72,819.0,1.0,2.0,ABA
BI_C_Digit,11.0,1.0,73,909.0,0.0,3.0,ABA
BI_C_Digit,11.0,1.0,74,483.0,1.0,1.0,CBA
BI_C_Digit,11.0,1.0,75,890.0,0.0,2.0,CBA
BI_C_Digit,11.0,1.0,76,1052.0,1.0,1.0,ABA
BI_C_Digit,11.0,1.0,77,655.0,1.0,2.0,ABA
BI_C_Digit,11.0,1.0,78,702.0,1.0,3.0,CBA
BI_C_Digit,11.0,1.0,79,634.0,1.0,1.0,CBA
BI_C_Digit,11.0,1.0,80,717.0,0.0,2.0,CBA
BI_C_Digit,11.0,1.0,81,368.0,1.0,1.0,ABA
BI_C_Digit,11.0,1.0,82,500.0,1.0,3.0,CBA
BI_C_Digit,11.0,1.0,83,669.0,1.0,2.0,CBA
BI_C_Digit,11.0,1.0,84,490.0,1.0,1.0,CBA
BI_C_Digit,11.0,1.0,85,668.0,1.0,3.0,CBA
BI_C_Digit,11.0,1.0,86,390.0,1.0,1.0,ABA
BI_C_Digit,11.0,1.0,87,697.0,1.0,3.0,ABA
BI_C_Digit,11.0,1.0,88,334.0,1.0,1.0,ABA
BI_C_Digit,11.0,1.0,89,355.0,1.0,3.0,ABA
BI_C_Digit,11.0,1.0,90,759.0,0.0,2.0,CBA
BI_C_Digit,11.0,1.0,91,607.0,1.0,3.0,ABA
BI_C_Digit,11.0,1.0,92,702.0,0.0,2.0,ABA
BI_C_Digit,11.0,1.0,93,649.0,0.0,1.0,CBA
BI_C_Digit,11.0,1.0,94,530.0,0.0,3.0,CBA
BI_C_Digit,11.0,1.0,95,774.0,1.0,2.0,CBA
BI_C_Digit,11.0,1.0,96,759.0,1.0,3.0,ABA
BI_C_Digit,11.0,1.0,97,652.0,1.0,1.0,CBA
BI_C_Digit,11.0,1.0,98,455.0,0.0,2.0,CBA
BI_C_Digit,11.0,1.0,99,669.0,1.0,1.0,ABA
BI_C_Digit,11.0,1.0,100,984.0,1.0,3.0,CBA
BI_C_Digit,11.0,1.0,101,691.0,1.0,1.0,ABA
BI_C_Digit,11.0,1.0,102,597.0,0.0,3.0,ABA
BI_C_Digit,11.0,1.0,103,385.0,0.0,2.0,CBA
BI_C_Digit,11.0,1.0,104,387.0,1.0,1.0,CBA
BI_C_Digit,11.0,1.0,105,830.0,0.0,2.0,ABA
BI_C_Digit,11.0,1.0,106,385.0,1.0,1.0,ABA
BI_C_Digit,11.0,1.0,107,402.0,1.0,3.0,CBA
BI_C_Digit,11.0,1.0,108,466.0,1.0,1.0,ABA
BI_C_Digit,11.0,1.0,109,802.0,1.0,3.0,ABA
BI_C_Digit,11.0,1.0,110,556.0,1.0,2.0,CBA
BI_C_Digit,11.0,1.0,111,718.0,1.0,1.0,CBA
BI_C_Digit,11.0,1.0,112,944.0,0.0,3.0,CBA
BI_C_Digit,11.0,1.0,113,602.0,1.0,1.0,ABA
BI_C_Digit,11.0,1.0,114,651.0,1.0,2.0,CBA
BI_C_Digit,11.0,1.0,115,452.0,1.0,1.0,ABA
BI_C_Digit,11.0,1.0,116,560.0,1.0,2.0,ABA
BI_C_Digit,11.0,1.0,117,503.0,1.0,1.0,ABA
BI_C_Digit,11.0,1.0,118,701.0,1.0,2.0,ABA
BI_C_Digit,11.0,1.0,119,739.0,1.0,1.0,ABA
BI_C_Digit,11.0,1.0,120,429.0,0.0,2.0,ABA
BI_C_Digit,11.0,2.0,1,426.0,0.0,3.0,0.0
BI_C_Digit,11.0,2.0,2,726.0,1.0,2.0,0.0
BI_C_Digit,11.0,2.0,3,961.0,0.0,3.0,ABA
BI_C_Digit,11.0,2.0,4,504.0,0.0,2.0,ABA
BI_C_Digit,11.0,2.0,5,1057.0,1.0,3.0,ABA
BI_C_Digit,11.0,2.0,6,1006.0,0.0,2.0,ABA
BI_C_Digit,11.0,2.0,7,913.0,0.0,3.0,ABA
BI_C_Digit,11.0,2.0,8,777.0,0.0,2.0,ABA
BI_C_Digit,11.0,2.0,9,444.0,1.0,1.0,CBA
BI_C_Digit,11.0,2.0,10,598.0,0.0,2.0,ABA
BI_C_Digit,11.0,2.0,11,393.0,1.0,1.0,ABA
BI_C_Digit,11.0,2.0,12,566.0,0.0,2.0,ABA
BI_C_Digit,11.0,2.0,13,511.0,1.0,1.0,ABA
BI_C_Digit,11.0,2.0,14,722.0,1.0,3.0,CBA
BI_C_Digit,11.0,2.0,15,619.0,0.0,1.0,ABA
BI_C_Digit,11.0,2.0,16,535.0,0.0,3.0,ABA
BI_C_Digit,11.0,2.0,17,599.0,0.0,2.0,CBA
BI_C_Digit,11.0,2.0,18,417.0,1.0,1.0,CBA
BI_C_Digit,11.0,2.0,19,584.0,1.0,3.0,CBA
BI_C_Digit,11.0,2.0,20,906.0,1.0,2.0,CBA
BI_C_Digit,11.0,2.0,21,457.0,1.0,1.0,CBA
BI_C_Digit,11.0,2.0,22,456.0,1.0,3.0,CBA
BI_C_Digit,11.0,2.0,23,885.0,1.0,2.0,CBA
BI_C_Digit,11.0,2.0,24,747.0,1.0,3.0,ABA
BI_C_Digit,11.0,2.0,25,790.0,1.0,2.0,ABA
BI_C_Digit,11.0,2.0,26,471.0,1.0,1.0,CBA
BI_C_Digit,11.0,2.0,27,837.0,1.0,3.0,CBA
BI_C_Digit,11.0,2.0,28,618.0,1.0,2.0,CBA
BI_C_Digit,11.0,2.0,29,933.0,0.0,3.0,ABA
BI_C_Digit,11.0,2.0,30,687.0,1.0,1.0,CBA
BI_C_Digit,11.0,2.0,31,512.0,1.0,3.0,ABA
BI_C_Digit,11.0,2.0,32,674.0,1.0,1.0,ABA
BI_C_Digit,11.0,2.0,33,423.0,1.0,2.0,CBA
BI_C_Digit,11.0,2.0,34,601.0,1.0,3.0,CBA
BI_C_Digit,11.0,2.0,35,763.0,1.0,1.0,CBA
BI_C_Digit,11.0,2.0,36,723.0,1.0,2.0,CBA
BI_C_Digit,11.0,2.0,37,698.0,1.0,3.0,CBA
BI_C_Digit,11.0,2.0,38,847.0,1.0,1.0,CBA
BI_C_Digit,11.0,2.0,39,580.0,1.0,2.0,CBA
BI_C_Digit,11.0,2.0,40,652.0,1.0,1.0,ABA
BI_C_Digit,11.0,2.0,41,742.0,1.0,2.0,ABA
BI_C_Digit,11.0,2.0,42,580.0,1.0,3.0,CBA
BI_C_Digit,11.0,2.0,43,364.0,1.0,1.0,CBA
BI_C_Digit,11.0,2.0,44,610.0,1.0,2.0,CBA
BI_C_Digit,11.0,2.0,45,462.0,1.0,1.0,ABA
BI_C_Digit,11.0,2.0,46,726.0,0.0,3.0,CBA
BI_C_Digit,11.0,2.0,47,385.0,1.0,1.0,ABA
BI_C_Digit,11.0,2.0,48,530.0,1.0,3.0,ABA
BI_C_Digit,11.0,2.0,49,439.0,1.0,1.0,ABA
BI_C_Digit,11.0,2.0,50,636.0,1.0,3.0,ABA
BI_C_Digit,11.0,2.0,51,789.0,1.0,2.0,CBA
BI_C_Digit,11.0,2.0,52,437.0,1.0,1.0,CBA
BI_C_Digit,11.0,2.0,53,596.0,1.0,2.0,ABA
BI_C_Digit,11.0,2.0,54,702.0,0.0,3.0,CBA
BI_C_Digit,11.0,2.0,55,601.0,0.0,2.0,ABA
BI_C_Digit,11.0,2.0,56,377.0,1.0,1.0,CBA
BI_C_Digit,11.0,2.0,57,868.0,1.0,2.0,ABA
BI_C_Digit,11.0,2.0,58,521.0,1.0,1.0,ABA
BI_C_Digit,11.0,2.0,59,527.0,1.0,2.0,ABA
BI_C_Digit,11.0,2.0,60,398.0,1.0,1.0,ABA
BI_C_Digit,11.0,2.0,61,851.0,1.0,2.0,ABA
BI_C_Digit,11.0,2.0,62,514.0,1.0,1.0,ABA
BI_C_Digit,11.0,2.0,63,1242.0,1.0,3.0,CBA
BI_C_Digit,11.0,2.0,64,582.0,0.0,2.0,CBA
BI_C_Digit,11.0,2.0,65,613.0,1.0,1.0,CBA
BI_C_Digit,11.0,2.0,66,441.0,0.0,2.0,ABA
BI_C_Digit,11.0,2.0,67,463.0,1.0,1.0,ABA
BI_C_Digit,11.0,2.0,68,683.0,1.0,3.0,CBA
BI_C_Digit,11.0,2.0,69,647.0,0.0,2.0,CBA
BI_C_Digit,11.0,2.0,70,771.0,1.0,1.0,CBA
BI_C_Digit,11.0,2.0,71,682.0,1.0,3.0,CBA
BI_C_Digit,11.0,2.0,72,1048.0,1.0,2.0,CBA
BI_C_Digit,11.0,2.0,73,420.0,1.0,1.0,CBA
BI_C_Digit,11.0,2.0,74,419.0,0.0,2.0,ABA
BI_C_Digit,11.0,2.0,75,455.0,0.0,3.0,CBA
BI_C_Digit,11.0,2.0,76,573.0,0.0,2.0,ABA
BI_C_Digit,11.0,2.0,77,839.0,1.0,3.0,ABA
BI_C_Digit,11.0,2.0,78,844.0,1.0,2.0,ABA
BI_C_Digit,11.0,2.0,79,427.0,1.0,1.0,CBA
BI_C_Digit,11.0,2.0,80,1284.0,1.0,2.0,ABA
BI_C_Digit,11.0,2.0,81,334.0,1.0,3.0,CBA
BI_C_Digit,11.0,2.0,82,428.0,1.0,2.0,ABA
BI_C_Digit,11.0,2.0,83,507.0,1.0,1.0,CBA
BI_C_Digit,11.0,2.0,84,627.0,1.0,3.0,CBA
BI_C_Digit,11.0,2.0,85,598.0,0.0,2.0,CBA
BI_C_Digit,11.0,2.0,86,673.0,0.0,1.0,CBA
BI_C_Digit,11.0,2.0,87,1271.0,1.0,2.0,ABA
BI_C_Digit,11.0,2.0,88,581.0,1.0,1.0,ABA
BI_C_Digit,11.0,2.0,89,1565.0,1.0,3.0,CBA
BI_C_Digit,11.0,2.0,90,774.0,0.0,1.0,ABA
BI_C_Digit,11.0,2.0,91,544.0,1.0,2.0,CBA
BI_C_Digit,11.0,2.0,92,348.0,1.0,1.0,ABA
BI_C_Digit,11.0,2.0,93,418.0,1.0,3.0,CBA
BI_C_Digit,11.0,2.0,94,1264.0,1.0,2.0,CBA
BI_C_Digit,11.0,2.0,95,581.0,1.0,3.0,ABA
BI_C_Digit,11.0,2.0,96,751.0,1.0,1.0,CBA
BI_C_Digit,11.0,2.0,97,411.0,0.0,3.0,ABA
BI_C_Digit,11.0,2.0,98,409.0,1.0,1.0,ABA
BI_C_Digit,11.0,2.0,99,900.0,1.0,3.0,ABA
BI_C_Digit,11.0,2.0,100,396.0,1.0,1.0,ABA
BI_C_Digit,11.0,2.0,101,586.0,1.0,2.0,CBA
BI_C_Digit,11.0,2.0,102,545.0,1.0,3.0,CBA
BI_C_Digit,11.0,2.0,103,1067.0,1.0,1.0,CBA
BI_C_Digit,11.0,2.0,104,523.0,1.0,3.0,ABA
BI_C_Digit,11.0,2.0,105,572.0,1.0,2.0,CBA
BI_C_Digit,11.0,2.0,106,787.0,0.0,3.0,ABA
BI_C_Digit,11.0,2.0,107,540.0,1.0,2.0,ABA
BI_C_Digit,11.0,2.0,108,383.0,1.0,1.0,CBA
BI_C_Digit,11.0,2.0,109,493.0,1.0,3.0,CBA
BI_C_Digit,11.0,2.0,110,386.0,1.0,1.0,ABA
BI_C_Digit,11.0,2.0,111,505.0,1.0,3.0,ABA
BI_C_Digit,11.0,2.0,112,755.0,1.0,1.0,ABA
BI_C_Digit,11.0,2.0,113,836.0,0.0,3.0,ABA
BI_C_Digit,11.0,2.0,114,790.0,1.0,2.0,CBA
BI_C_Digit,11.0,2.0,115,860.0,1.0,1.0,CBA
BI_C_Digit,11.0,2.0,116,849.0,0.0,3.0,CBA
BI_C_Digit,11.0,2.0,117,1013.0,1.0,1.0,ABA
BI_C_Digit,11.0,2.0,118,500.0,1.0,3.0,ABA
BI_C_Digit,11.0,2.0,119,1031.0,1.0,2.0,CBA
BI_C_Digit,11.0,2.0,120,453.0,1.0,3.0,ABA
BI_C_Digit,11.0,3.0,1,852.0,1.0,2.0,0.0
BI_C_Digit,11.0,3.0,2,404.0,1.0,1.0,0.0
BI_C_Digit,11.0,3.0,3,550.0,1.0,2.0,ABA
BI_C_Digit,11.0,3.0,4,498.0,1.0,3.0,CBA
BI_C_Digit,11.0,3.0,5,686.0,0.0,2.0,ABA
BI_C_Digit,11.0,3.0,6,338.0,1.0,1.0,CBA
BI_C_Digit,11.0,3.0,7,739.0,1.0,2.0,ABA
BI_C_Digit,11.0,3.0,8,443.0,1.0,3.0,CBA
BI_C_Digit,11.0,3.0,9,841.0,1.0,1.0,CBA
BI_C_Digit,11.0,3.0,10,488.0,0.0,2.0,CBA
BI_C_Digit,11.0,3.0,11,981.0,1.0,3.0,CBA
BI_C_Digit,11.0,3.0,12,880.0,1.0,1.0,CBA
BI_C_Digit,11.0,3.0,13,587.0,1.0,3.0,ABA
BI_C_Digit,11.0,3.0,14,872.0,0.0,2.0,CBA
BI_C_Digit,11.0,3.0,15,485.0,0.0,1.0,CBA
BI_C_Digit,11.0,3.0,16,739.0,1.0,3.0,CBA
BI_C_Digit,11.0,3.0,17,782.0,1.0,1.0,ABA
BI_C_Digit,11.0,3.0,18,562.0,1.0,3.0,ABA
BI_C_Digit,11.0,3.0,19,432.0,1.0,1.0,ABA
BI_C_Digit,11.0,3.0,20,801.0,1.0,3.0,ABA
BI_C_Digit,11.0,3.0,21,1043.0,1.0,1.0,ABA
BI_C_Digit,11.0,3.0,22,873.0,1.0,3.0,ABA
BI_C_Digit,11.0,3.0,23,589.0,1.0,2.0,CBA
BI_C_Digit,11.0,3.0,24,558.0,1.0,1.0,CBA
BI_C_Digit,11.0,3.0,25,592.0,1.0,2.0,ABA
BI_C_Digit,11.0,3.0,26,675.0,1.0,3.0,CBA
BI_C_Digit,11.0,3.0,27,1128.0,1.0,2.0,ABA
BI_C_Digit,11.0,3.0,28,738.0,1.0,1.0,CBA
BI_C_Digit,11.0,3.0,29,785.0,1.0,3.0,CBA
BI_C_Digit,11.0,3.0,30,928.0,1.0,1.0,ABA
BI_C_Digit,11.0,3.0,31,717.0,1.0,3.0,ABA
BI_C_Digit,11.0,3.0,32,485.0,0.0,2.0,CBA
BI_C_Digit,11.0,3.0,33,525.0,1.0,1.0,CBA
BI_C_Digit,11.0,3.0,34,513.0,0.0,2.0,ABA
BI_C_Digit,11.0,3.0,35,522.0,1.0,3.0,CBA
BI_C_Digit,11.0,3.0,36,492.0,1.0,1.0,CBA
BI_C_Digit,11.0,3.0,37,677.0,1.0,2.0,CBA
BI_C_Digit,11.0,3.0,38,488.0,1.0,1.0,ABA
BI_C_Digit,11.0,3.0,39,742.0,1.0,3.0,CBA
BI_C_Digit,11.0,3.0,40,576.0,1.0,1.0,ABA
BI_C_Digit,11.0,3.0,41,780.0,1.0,3.0,ABA
BI_C_Digit,11.0,3.0,42,450.0,1.0,1.0,ABA
BI_C_Digit,11.0,3.0,43,627.0,0.0,3.0,ABA
BI_C_Digit,11.0,3.0,44,337.0,0.0,1.0,ABA
BI_C_Digit,11.0,3.0,45,1290.0,0.0,2.0,CBA
BI_C_Digit,11.0,3.0,46,422.0,1.0,1.0,ABA
BI_C_Digit,11.0,3.0,47,611.0,1.0,2.0,ABA
BI_C_Digit,11.0,3.0,48,770.0,1.0,3.0,CBA
BI_C_Digit,11.0,3.0,49,628.0,1.0,2.0,ABA
BI_C_Digit,11.0,3.0,50,651.0,1.0,3.0,ABA
BI_C_Digit,11.0,3.0,51,632.0,1.0,1.0,CBA
BI_C_Digit,11.0,3.0,52,984.0,1.0,3.0,ABA
BI_C_Digit,11.0,3.0,53,903.0,0.0,2.0,CBA
BI_C_Digit,11.0,3.0,54,775.0,1.0,1.0,CBA
BI_C_Digit,11.0,3.0,55,1092.0,1.0,2.0,ABA
BI_C_Digit,11.0,3.0,56,503.0,1.0,1.0,ABA
BI_C_Digit,11.0,3.0,57,1066.0,1.0,3.0,CBA
BI_C_Digit,11.0,3.0,58,836.0,1.0,1.0,ABA
BI_C_Digit,11.0,3.0,59,1077.0,1.0,2.0,CBA
BI_C_Digit,11.0,3.0,60,1284.0,1.0,3.0,CBA
BI_C_Digit,11.0,3.0,61,947.0,1.0,1.0,CBA
BI_C_Digit,11.0,3.0,62,1307.0,1.0,3.0,ABA
BI_C_Digit,11.0,3.0,63,1597.0,1.0,1.0,ABA
BI_C_Digit,11.0,3.0,64,919.0,1.0,2.0,CBA
BI_C_Digit,11.0,3.0,65,1474.0,1.0,3.0,CBA
BI_C_Digit,11.0,3.0,66,914.0,1.0,1.0,CBA
BI_C_Digit,11.0,3.0,67,1367.0,1.0,3.0,ABA
BI_C_Digit,11.0,3.0,68,1118.0,1.0,2.0,CBA
BI_C_Digit,11.0,3.0,69,456.0,1.0,1.0,CBA
BI_C_Digit,11.0,3.0,70,615.0,1.0,3.0,CBA
BI_C_Digit,11.0,3.0,71,425.0,1.0,1.0,ABA
BI_C_Digit,11.0,3.0,72,636.0,1.0,2.0,CBA
BI_C_Digit,11.0,3.0,73,718.0,1.0,1.0,ABA
BI_C_Digit,11.0,3.0,74,558.0,1.0,2.0,ABA
BI_C_Digit,11.0,3.0,75,402.0,1.0,3.0,CBA
BI_C_Digit,11.0,3.0,76,726.0,0.0,1.0,CBA
BI_C_Digit,11.0,3.0,77,951.0,1.0,2.0,CBA
BI_C_Digit,11.0,3.0,78,475.0,1.0,1.0,ABA
BI_C_Digit,11.0,3.0,79,771.0,1.0,3.0,CBA
BI_C_Digit,11.0,3.0,80,692.0,0.0,2.0,CBA
BI_C_Digit,11.0,3.0,81,1225.0,1.0,3.0,ABA
BI_C_Digit,11.0,3.0,82,621.0,1.0,2.0,ABA
BI_C_Digit,11.0,3.0,83,899.0,1.0,3.0,ABA
BI_C_Digit,11.0,3.0,84,1120.0,1.0,2.0,ABA
BI_C_Digit,11.0,3.0,85,587.0,1.0,1.0,CBA
BI_C_Digit,11.0,3.0,86,1358.0,1.0,2.0,ABA
BI_C_Digit,11.0,3.0,87,604.0,1.0,3.0,CBA
BI_C_Digit,11.0,3.0,88,355.0,1.0,1.0,CBA
BI_C_Digit,11.0,3.0,89,762.0,1.0,3.0,ABA
BI_C_Digit,11.0,3.0,90,1096.0,1.0,1.0,ABA
BI_C_Digit,11.0,3.0,91,1058.0,1.0,3.0,ABA
BI_C_Digit,11.0,3.0,92,857.0,1.0,1.0,ABA
BI_C_Digit,11.0,3.0,93,2030.0,1.0,2.0,CBA
BI_C_Digit,11.0,3.0,94,724.0,1.0,1.0,ABA
BI_C_Digit,11.0,3.0,95,708.0,1.0,2.0,ABA
BI_C_Digit,11.0,3.0,96,1182.0,1.0,3.0,CBA
BI_C_Digit,11.0,3.0,97,1104.0,1.0,2.0,ABA
BI_C_Digit,11.0,3.0,98,1941.0,1.0,3.0,ABA
BI_C_Digit,11.0,3.0,99,1084.0,1.0,2.0,ABA
BI_C_Digit,11.0,3.0,100,1078.0,1.0,3.0,ABA
BI_C_Digit,11.0,3.0,101,945.0,1.0,2.0,ABA
BI_C_Digit,11.0,3.0,102,501.0,1.0,1.0,CBA
BI_C_Digit,11.0,3.0,103,1304.0,1.0,3.0,CBA
BI_C_Digit,11.0,3.0,104,744.0,1.0,2.0,CBA
BI_C_Digit,11.0,3.0,105,402.0,1.0,1.0,CBA
BI_C_Digit,11.0,3.0,106,1052.0,1.0,3.0,CBA
BI_C_Digit,11.0,3.0,107,492.0,0.0,2.0,CBA
BI_C_Digit,11.0,3.0,108,505.0,1.0,1.0,CBA
BI_C_Digit,11.0,3.0,109,759.0,1.0,2.0,ABA
BI_C_Digit,11.0,3.0,110,513.0,1.0,3.0,CBA
BI_C_Digit,11.0,3.0,111,623.0,0.0,2.0,ABA
BI_C_Digit,11.0,3.0,112,468.0,1.0,1.0,CBA
BI_C_Digit,11.0,3.0,113,565.0,0.0,3.0,CBA
BI_C_Digit,11.0,3.0,114,1439.0,1.0,2.0,CBA
BI_C_Digit,11.0,3.0,115,526.0,1.0,1.0,CBA
BI_C_Digit,11.0,3.0,116,703.0,1.0,2.0,ABA
BI_C_Digit,11.0,3.0,117,954.0,1.0,3.0,CBA
BI_C_Digit,11.0,3.0,118,661.0,1.0,2.0,ABA
BI_C_Digit,11.0,3.0,119,564.0,1.0,3.0,ABA
BI_C_Digit,11.0,3.0,120,1298.0,1.0,2.0,ABA
BI_C_Digit,11.0,4.0,1,1167.0,1.0,3.0,0.0
BI_C_Digit,11.0,4.0,2,644.0,1.0,2.0,0.0
BI_C_Digit,11.0,4.0,3,509.0,1.0,3.0,ABA
BI_C_Digit,11.0,4.0,4,467.0,1.0,2.0,ABA
BI_C_Digit,11.0,4.0,5,1155.0,1.0,3.0,ABA
BI_C_Digit,11.0,4.0,6,377.0,1.0,1.0,CBA
BI_C_Digit,11.0,4.0,7,637.0,1.0,2.0,CBA
BI_C_Digit,11.0,4.0,8,821.0,1.0,1.0,ABA
BI_C_Digit,11.0,4.0,9,594.0,1.0,2.0,ABA
BI_C_Digit,11.0,4.0,10,465.0,1.0,1.0,ABA
BI_C_Digit,11.0,4.0,11,1622.0,1.0,2.0,ABA
BI_C_Digit,11.0,4.0,12,709.0,1.0,3.0,CBA
BI_C_Digit,11.0,4.0,13,943.0,1.0,2.0,ABA
BI_C_Digit,11.0,4.0,14,1117.0,1.0,3.0,ABA
BI_C_Digit,11.0,4.0,15,438.0,1.0,1.0,CBA
BI_C_Digit,11.0,4.0,16,476.0,1.0,3.0,ABA
BI_C_Digit,11.0,4.0,17,563.0,1.0,1.0,ABA
BI_C_Digit,11.0,4.0,18,597.0,1.0,3.0,ABA
BI_C_Digit,11.0,4.0,19,1315.0,1.0,1.0,ABA
BI_C_Digit,11.0,4.0,20,1118.0,1.0,3.0,ABA
BI_C_Digit,11.0,4.0,21,758.0,1.0,2.0,CBA
BI_C_Digit,11.0,4.0,22,1072.0,1.0,1.0,CBA
BI_C_Digit,11.0,4.0,23,654.0,0.0,3.0,CBA
BI_C_Digit,11.0,4.0,24,638.0,1.0,2.0,CBA
BI_C_Digit,11.0,4.0,25,1019.0,1.0,3.0,ABA
BI_C_Digit,11.0,4.0,26,511.0,1.0,1.0,CBA
BI_C_Digit,11.0,4.0,27,1322.0,1.0,2.0,CBA
BI_C_Digit,11.0,4.0,28,701.0,1.0,1.0,ABA
BI_C_Digit,11.0,4.0,29,815.0,1.0,3.0,CBA
BI_C_Digit,11.0,4.0,30,1229.0,1.0,1.0,ABA
BI_C_Digit,11.0,4.0,31,1038.0,0.0,2.0,CBA
BI_C_Digit,11.0,4.0,32,623.0,1.0,1.0,ABA
BI_C_Digit,11.0,4.0,33,1040.0,1.0,2.0,ABA
BI_C_Digit,11.0,4.0,34,1873.0,1.0,3.0,CBA
BI_C_Digit,11.0,4.0,35,1068.0,0.0,2.0,ABA
BI_C_Digit,11.0,4.0,36,806.0,1.0,1.0,CBA
BI_C_Digit,11.0,4.0,37,649.0,1.0,2.0,ABA
BI_C_Digit,11.0,4.0,38,717.0,1.0,3.0,CBA
BI_C_Digit,11.0,4.0,39,391.0,1.0,1.0,CBA
BI_C_Digit,11.0,4.0,40,875.0,1.0,2.0,CBA
BI_C_Digit,11.0,4.0,41,584.0,1.0,3.0,CBA
BI_C_Digit,11.0,4.0,42,414.0,1.0,1.0,CBA
BI_C_Digit,11.0,4.0,43,778.0,1.0,3.0,ABA
BI_C_Digit,11.0,4.0,44,410.0,1.0,1.0,ABA
BI_C_Digit,11.0,4.0,45,737.0,1.0,2.0,CBA
BI_C_Digit,11.0,4.0,46,661.0,1.0,1.0,ABA
BI_C_Digit,11.0,4.0,47,476.0,1.0,3.0,CBA
BI_C_Digit,11.0,4.0,48,1106.0,1.0,2.0,CBA
BI_C_Digit,11.0,4.0,49,369.0,1.0,1.0,CBA
BI_C_Digit,11.0,4.0,50,538.0,1.0,3.0,CBA
BI_C_Digit,11.0,4.0,51,874.0,1.0,2.0,CBA
BI_C_Digit,11.0,4.0,52,640.0,1.0,3.0,ABA
BI_C_Digit,11.0,4.0,53,778.0,1.0,1.0,CBA
BI_C_Digit,11.0,4.0,54,867.0,1.0,2.0,CBA
BI_C_Digit,11.0,4.0,55,1311.0,1.0,3.0,CBA
BI_C_Digit,11.0,4.0,56,664.0,1.0,2.0,ABA
BI_C_Digit,11.0,4.0,57,765.0,1.0,1.0,CBA
BI_C_Digit,11.0,4.0,58,1278.0,1.0,2.0,ABA
BI_C_Digit,11.0,4.0,59,1488.0,1.0,3.0,CBA
BI_C_Digit,11.0,4.0,60,651.0,1.0,1.0,CBA
BI_C_Digit,11.0,4.0,61,1093.0,0.0,2.0,CBA
BI_C_Digit,11.0,4.0,62,504.0,1.0,1.0,ABA
BI_C_Digit,11.0,4.0,63,568.0,1.0,2.0,ABA
BI_C_Digit,11.0,4.0,64,734.0,1.0,3.0,CBA
BI_C_Digit,11.0,4.0,65,1078.0,1.0,2.0,ABA
BI_C_Digit,11.0,4.0,66,1084.0,1.0,3.0,ABA
BI_C_Digit,11.0,4.0,67,426.0,1.0,1.0,CBA
BI_C_Digit,11.0,4.0,68,1336.0,1.0,2.0,CBA
BI_C_Digit,11.0,4.0,69,756.0,1.0,3.0,CBA
BI_C_Digit,11.0,4.0,70,556.0,1.0,1.0,CBA
BI_C_Digit,11.0,4.0,71,1044.0,1.0,2.0,CBA
BI_C_Digit,11.0,4.0,72,512.0,1.0,1.0,ABA
BI_C_Digit,11.0,4.0,73,1204.0,1.0,2.0,ABA
BI_C_Digit,11.0,4.0,74,486.0,1.0,1.0,ABA
BI_C_Digit,11.0,4.0,75,830.0,1.0,3.0,CBA
BI_C_Digit,11.0,4.0,76,1063.0,1.0,1.0,ABA
BI_C_Digit,11.0,4.0,77,1114.0,1.0,2.0,CBA
BI_C_Digit,11.0,4.0,78,505.0,1.0,3.0,CBA
BI_C_Digit,11.0,4.0,79,1176.0,1.0,2.0,ABA
BI_C_Digit,11.0,4.0,80,409.0,1.0,1.0,CBA
BI_C_Digit,11.0,4.0,81,896.0,1.0,2.0,ABA
BI_C_Digit,11.0,4.0,82,374.0,1.0,1.0,ABA
BI_C_Digit,11.0,4.0,83,1136.0,1.0,2.0,ABA
BI_C_Digit,11.0,4.0,84,764.0,1.0,3.0,CBA
BI_C_Digit,11.0,4.0,85,1604.0,1.0,2.0,ABA
BI_C_Digit,11.0,4.0,86,1081.0,1.0,3.0,ABA
BI_C_Digit,11.0,4.0,87,893.0,1.0,2.0,ABA
BI_C_Digit,11.0,4.0,88,662.0,1.0,1.0,CBA
BI_C_Digit,11.0,4.0,89,1028.0,1.0,2.0,ABA
BI_C_Digit,11.0,4.0,90,1356.0,1.0,3.0,CBA
BI_C_Digit,11.0,4.0,91,1059.0,1.0,1.0,CBA
BI_C_Digit,11.0,4.0,92,1147.0,1.0,3.0,ABA
BI_C_Digit,11.0,4.0,93,432.0,1.0,1.0,ABA
BI_C_Digit,11.0,4.0,94,920.0,0.0,3.0,ABA
BI_C_Digit,11.0,4.0,95,626.0,1.0,2.0,CBA
BI_C_Digit,11.0,4.0,96,1057.0,1.0,1.0,CBA
BI_C_Digit,11.0,4.0,97,615.0,1.0,2.0,ABA
BI_C_Digit,11.0,4.0,98,1165.0,1.0,3.0,CBA
BI_C_Digit,11.0,4.0,99,822.0,1.0,2.0,ABA
BI_C_Digit,11.0,4.0,100,890.0,1.0,3.0,ABA
BI_C_Digit,11.0,4.0,101,450.0,1.0,1.0,CBA
BI_C_Digit,11.0,4.0,102,607.0,1.0,2.0,CBA
BI_C_Digit,11.0,4.0,103,789.0,1.0,1.0,ABA
BI_C_Digit,11.0,4.0,104,1174.0,1.0,3.0,CBA
BI_C_Digit,11.0,4.0,105,1199.0,1.0,2.0,CBA
BI_C_Digit,11.0,4.0,106,624.0,1.0,1.0,CBA
BI_C_Digit,11.0,4.0,107,882.0,1.0,3.0,CBA
BI_C_Digit,11.0,4.0,108,419.0,1.0,1.0,ABA
BI_C_Digit,11.0,4.0,109,837.0,1.0,3.0,ABA
BI_C_Digit,11.0,4.0,110,668.0,1.0,2.0,CBA
BI_C_Digit,11.0,4.0,111,902.0,1.0,3.0,ABA
BI_C_Digit,11.0,4.0,112,366.0,1.0,1.0,CBA
BI_C_Digit,11.0,4.0,113,1035.0,1.0,3.0,ABA
BI_C_Digit,11.0,4.0,114,2161.0,1.0,1.0,ABA
BI_C_Digit,11.0,4.0,115,854.0,0.0,3.0,ABA
BI_C_Digit,11.0,4.0,116,322.0,1.0,1.0,ABA
BI_C_Digit,11.0,4.0,117,742.0,0.0,3.0,ABA
BI_C_Digit,11.0,4.0,118,397.0,1.0,1.0,ABA
BI_C_Digit,11.0,4.0,119,539.0,1.0,3.0,ABA
BI_C_Digit,11.0,4.0,120,992.0,0.0,2.0,CBA
BI_C_Digit,12.0,1.0,1,616.0,1.0,3.0,0.0
BI_C_Digit,12.0,1.0,2,817.0,1.0,2.0,0.0
BI_C_Digit,12.0,1.0,3,704.0,1.0,3.0,ABA
BI_C_Digit,12.0,1.0,4,818.0,1.0,2.0,ABA
BI_C_Digit,12.0,1.0,5,754.0,1.0,3.0,ABA
BI_C_Digit,12.0,1.0,6,1135.0,0.0,2.0,ABA
BI_C_Digit,12.0,1.0,7,491.0,1.0,3.0,ABA
BI_C_Digit,12.0,1.0,8,901.0,0.0,2.0,ABA
BI_C_Digit,12.0,1.0,9,625.0,1.0,1.0,CBA
BI_C_Digit,12.0,1.0,10,457.0,1.0,2.0,ABA
BI_C_Digit,12.0,1.0,11,809.0,1.0,1.0,ABA
BI_C_Digit,12.0,1.0,12,452.0,1.0,2.0,ABA
BI_C_Digit,12.0,1.0,13,571.0,1.0,1.0,ABA
BI_C_Digit,12.0,1.0,14,898.0,1.0,3.0,CBA
BI_C_Digit,12.0,1.0,15,1094.0,1.0,1.0,ABA
BI_C_Digit,12.0,1.0,16,1539.0,1.0,3.0,ABA
BI_C_Digit,12.0,1.0,17,1295.0,1.0,2.0,CBA
BI_C_Digit,12.0,1.0,18,501.0,1.0,1.0,CBA
BI_C_Digit,12.0,1.0,19,1129.0,1.0,3.0,CBA
BI_C_Digit,12.0,1.0,20,649.0,1.0,2.0,CBA
BI_C_Digit,12.0,1.0,21,678.0,1.0,1.0,CBA
BI_C_Digit,12.0,1.0,22,895.0,1.0,3.0,CBA
BI_C_Digit,12.0,1.0,23,614.0,1.0,2.0,CBA
BI_C_Digit,12.0,1.0,24,636.0,1.0,3.0,ABA
BI_C_Digit,12.0,1.0,25,577.0,1.0,2.0,ABA
BI_C_Digit,12.0,1.0,26,351.0,1.0,1.0,CBA
BI_C_Digit,12.0,1.0,27,1098.0,1.0,3.0,CBA
BI_C_Digit,12.0,1.0,28,515.0,1.0,2.0,CBA
BI_C_Digit,12.0,1.0,29,521.0,0.0,3.0,ABA
BI_C_Digit,12.0,1.0,30,674.0,1.0,1.0,CBA
BI_C_Digit,12.0,1.0,31,884.0,1.0,3.0,ABA
BI_C_Digit,12.0,1.0,32,528.0,1.0,1.0,ABA
BI_C_Digit,12.0,1.0,33,757.0,1.0,2.0,CBA
BI_C_Digit,12.0,1.0,34,465.0,0.0,3.0,CBA
BI_C_Digit,12.0,1.0,35,729.0,1.0,1.0,CBA
BI_C_Digit,12.0,1.0,36,445.0,1.0,2.0,CBA
BI_C_Digit,12.0,1.0,37,707.0,1.0,3.0,CBA
BI_C_Digit,12.0,1.0,38,735.0,1.0,1.0,CBA
BI_C_Digit,12.0,1.0,39,405.0,1.0,2.0,CBA
BI_C_Digit,12.0,1.0,40,903.0,1.0,1.0,ABA
BI_C_Digit,12.0,1.0,41,434.0,1.0,2.0,ABA
BI_C_Digit,12.0,1.0,42,694.0,1.0,3.0,CBA
BI_C_Digit,12.0,1.0,43,1214.0,1.0,1.0,CBA
BI_C_Digit,12.0,1.0,44,970.0,1.0,2.0,CBA
BI_C_Digit,12.0,1.0,45,554.0,1.0,1.0,ABA
BI_C_Digit,12.0,1.0,46,910.0,1.0,3.0,CBA
BI_C_Digit,12.0,1.0,47,894.0,1.0,1.0,ABA
BI_C_Digit,12.0,1.0,48,850.0,1.0,3.0,ABA
BI_C_Digit,12.0,1.0,49,706.0,1.0,1.0,ABA
BI_C_Digit,12.0,1.0,50,434.0,1.0,3.0,ABA
BI_C_Digit,12.0,1.0,51,1074.0,1.0,2.0,CBA
BI_C_Digit,12.0,1.0,52,824.0,1.0,1.0,CBA
BI_C_Digit,12.0,1.0,53,961.0,0.0,2.0,ABA
BI_C_Digit,12.0,1.0,54,673.0,1.0,3.0,CBA
BI_C_Digit,12.0,1.0,55,1059.0,0.0,2.0,ABA
BI_C_Digit,12.0,1.0,56,1010.0,1.0,1.0,CBA
BI_C_Digit,12.0,1.0,57,621.0,1.0,2.0,ABA
BI_C_Digit,12.0,1.0,58,975.0,0.0,1.0,ABA
BI_C_Digit,12.0,1.0,59,817.0,0.0,2.0,ABA
BI_C_Digit,12.0,1.0,60,704.0,1.0,1.0,ABA
BI_C_Digit,12.0,1.0,61,1291.0,1.0,2.0,ABA
BI_C_Digit,12.0,1.0,62,608.0,1.0,1.0,ABA
BI_C_Digit,12.0,1.0,63,887.0,1.0,3.0,CBA
BI_C_Digit,12.0,1.0,64,782.0,1.0,2.0,CBA
BI_C_Digit,12.0,1.0,65,649.0,1.0,1.0,CBA
BI_C_Digit,12.0,1.0,66,493.0,1.0,2.0,ABA
BI_C_Digit,12.0,1.0,67,638.0,1.0,1.0,ABA
BI_C_Digit,12.0,1.0,68,431.0,1.0,3.0,CBA
BI_C_Digit,12.0,1.0,69,665.0,1.0,2.0,CBA
BI_C_Digit,12.0,1.0,70,600.0,1.0,1.0,CBA
BI_C_Digit,12.0,1.0,71,1320.0,1.0,3.0,CBA
BI_C_Digit,12.0,1.0,72,881.0,0.0,2.0,CBA
BI_C_Digit,12.0,1.0,73,477.0,1.0,1.0,CBA
BI_C_Digit,12.0,1.0,74,805.0,1.0,2.0,ABA
BI_C_Digit,12.0,1.0,75,784.0,1.0,3.0,CBA
BI_C_Digit,12.0,1.0,76,891.0,1.0,2.0,ABA
BI_C_Digit,12.0,1.0,77,503.0,1.0,3.0,ABA
BI_C_Digit,12.0,1.0,78,535.0,1.0,2.0,ABA
BI_C_Digit,12.0,1.0,79,826.0,1.0,1.0,CBA
BI_C_Digit,12.0,1.0,80,670.0,1.0,2.0,ABA
BI_C_Digit,12.0,1.0,81,978.0,0.0,3.0,CBA
BI_C_Digit,12.0,1.0,82,431.0,1.0,2.0,ABA
BI_C_Digit,12.0,1.0,83,377.0,1.0,1.0,CBA
BI_C_Digit,12.0,1.0,84,530.0,1.0,3.0,CBA
BI_C_Digit,12.0,1.0,85,444.0,1.0,2.0,CBA
BI_C_Digit,12.0,1.0,86,551.0,0.0,1.0,CBA
BI_C_Digit,12.0,1.0,87,500.0,1.0,2.0,ABA
BI_C_Digit,12.0,1.0,88,364.0,1.0,1.0,ABA
BI_C_Digit,12.0,1.0,89,641.0,0.0,3.0,CBA
BI_C_Digit,12.0,1.0,90,696.0,0.0,1.0,ABA
BI_C_Digit,12.0,1.0,91,351.0,1.0,2.0,CBA
BI_C_Digit,12.0,1.0,92,500.0,1.0,1.0,ABA
BI_C_Digit,12.0,1.0,93,463.0,0.0,3.0,CBA
BI_C_Digit,12.0,1.0,94,388.0,1.0,2.0,CBA
BI_C_Digit,12.0,1.0,95,848.0,1.0,3.0,ABA
BI_C_Digit,12.0,1.0,96,1070.0,1.0,1.0,CBA
BI_C_Digit,12.0,1.0,97,557.0,0.0,3.0,ABA
BI_C_Digit,12.0,1.0,98,537.0,1.0,1.0,ABA
BI_C_Digit,12.0,1.0,99,2037.0,1.0,3.0,ABA
BI_C_Digit,12.0,1.0,100,843.0,1.0,1.0,ABA
BI_C_Digit,12.0,1.0,101,747.0,1.0,2.0,CBA
BI_C_Digit,12.0,1.0,102,1373.0,1.0,3.0,CBA
BI_C_Digit,12.0,1.0,103,523.0,1.0,1.0,CBA
BI_C_Digit,12.0,1.0,104,998.0,1.0,3.0,ABA
BI_C_Digit,12.0,1.0,105,438.0,1.0,2.0,CBA
BI_C_Digit,12.0,1.0,106,1016.0,1.0,3.0,ABA
BI_C_Digit,12.0,1.0,107,707.0,1.0,2.0,ABA
BI_C_Digit,12.0,1.0,108,545.0,1.0,1.0,CBA
BI_C_Digit,12.0,1.0,109,958.0,1.0,3.0,CBA
BI_C_Digit,12.0,1.0,110,985.0,1.0,1.0,ABA
BI_C_Digit,12.0,1.0,111,972.0,1.0,3.0,ABA
BI_C_Digit,12.0,1.0,112,1092.0,0.0,1.0,ABA
BI_C_Digit,12.0,1.0,113,1092.0,1.0,3.0,ABA
BI_C_Digit,12.0,1.0,114,528.0,1.0,2.0,CBA
BI_C_Digit,12.0,1.0,115,1233.0,1.0,1.0,CBA
BI_C_Digit,12.0,1.0,116,796.0,0.0,3.0,CBA
BI_C_Digit,12.0,1.0,117,910.0,1.0,1.0,ABA
BI_C_Digit,12.0,1.0,118,503.0,0.0,3.0,ABA
BI_C_Digit,12.0,1.0,119,1306.0,1.0,2.0,CBA
BI_C_Digit,12.0,1.0,120,595.0,1.0,3.0,ABA
BI_C_Digit,12.0,2.0,1,688.0,1.0,2.0,0.0
BI_C_Digit,12.0,2.0,2,560.0,1.0,1.0,0.0
BI_C_Digit,12.0,2.0,3,455.0,1.0,2.0,ABA
BI_C_Digit,12.0,2.0,4,613.0,1.0,3.0,CBA
BI_C_Digit,12.0,2.0,5,741.0,1.0,2.0,ABA
BI_C_Digit,12.0,2.0,6,662.0,1.0,1.0,CBA
BI_C_Digit,12.0,2.0,7,598.0,1.0,2.0,ABA
BI_C_Digit,12.0,2.0,8,1606.0,1.0,3.0,CBA
BI_C_Digit,12.0,2.0,9,432.0,1.0,1.0,CBA
BI_C_Digit,12.0,2.0,10,596.0,1.0,2.0,CBA
BI_C_Digit,12.0,2.0,11,1220.0,1.0,3.0,CBA
BI_C_Digit,12.0,2.0,12,2476.0,1.0,1.0,CBA
BI_C_Digit,12.0,2.0,13,786.0,1.0,3.0,ABA
BI_C_Digit,12.0,2.0,14,1025.0,1.0,2.0,CBA
BI_C_Digit,12.0,2.0,15,492.0,1.0,1.0,CBA
BI_C_Digit,12.0,2.0,16,1363.0,1.0,3.0,CBA
BI_C_Digit,12.0,2.0,17,691.0,1.0,1.0,ABA
BI_C_Digit,12.0,2.0,18,1401.0,1.0,3.0,ABA
BI_C_Digit,12.0,2.0,19,1439.0,1.0,1.0,ABA
BI_C_Digit,12.0,2.0,20,484.0,1.0,3.0,ABA
BI_C_Digit,12.0,2.0,21,783.0,0.0,1.0,ABA
BI_C_Digit,12.0,2.0,22,1195.0,1.0,3.0,ABA
BI_C_Digit,12.0,2.0,23,1149.0,1.0,2.0,CBA
BI_C_Digit,12.0,2.0,24,1004.0,1.0,1.0,CBA
BI_C_Digit,12.0,2.0,25,1402.0,1.0,2.0,ABA
BI_C_Digit,12.0,2.0,26,484.0,1.0,3.0,CBA
BI_C_Digit,12.0,2.0,27,317.0,1.0,2.0,ABA
BI_C_Digit,12.0,2.0,28,526.0,1.0,1.0,CBA
BI_C_Digit,12.0,2.0,29,341.0,1.0,3.0,CBA
BI_C_Digit,12.0,2.0,30,1049.0,1.0,1.0,ABA
BI_C_Digit,12.0,2.0,31,1167.0,1.0,3.0,ABA
BI_C_Digit,12.0,2.0,32,672.0,1.0,2.0,CBA
BI_C_Digit,12.0,2.0,33,1333.0,1.0,1.0,CBA
BI_C_Digit,12.0,2.0,34,411.0,1.0,2.0,ABA
BI_C_Digit,12.0,2.0,35,1140.0,0.0,3.0,CBA
BI_C_Digit,12.0,2.0,36,981.0,1.0,1.0,CBA
BI_C_Digit,12.0,2.0,37,432.0,1.0,2.0,CBA
BI_C_Digit,12.0,2.0,38,774.0,0.0,1.0,ABA
BI_C_Digit,12.0,2.0,39,480.0,0.0,3.0,CBA
BI_C_Digit,12.0,2.0,40,1036.0,1.0,1.0,ABA
BI_C_Digit,12.0,2.0,41,539.0,1.0,3.0,ABA
BI_C_Digit,12.0,2.0,42,2563.0,1.0,1.0,ABA
BI_C_Digit,12.0,2.0,43,2547.0,1.0,3.0,ABA
BI_C_Digit,12.0,2.0,44,776.0,1.0,1.0,ABA
BI_C_Digit,12.0,2.0,45,370.0,1.0,2.0,CBA
BI_C_Digit,12.0,2.0,46,617.0,1.0,1.0,ABA
BI_C_Digit,12.0,2.0,47,846.0,1.0,2.0,ABA
BI_C_Digit,12.0,2.0,48,1550.0,1.0,3.0,CBA
BI_C_Digit,12.0,2.0,49,693.0,1.0,2.0,ABA
BI_C_Digit,12.0,2.0,50,555.0,1.0,3.0,ABA
BI_C_Digit,12.0,2.0,51,980.0,0.0,1.0,CBA
BI_C_Digit,12.0,2.0,52,651.0,1.0,3.0,ABA
BI_C_Digit,12.0,2.0,53,813.0,1.0,2.0,CBA
BI_C_Digit,12.0,2.0,54,596.0,1.0,1.0,CBA
BI_C_Digit,12.0,2.0,55,576.0,0.0,2.0,ABA
BI_C_Digit,12.0,2.0,56,890.0,1.0,1.0,ABA
BI_C_Digit,12.0,2.0,57,477.0,1.0,3.0,CBA
BI_C_Digit,12.0,2.0,58,904.0,1.0,1.0,ABA
BI_C_Digit,12.0,2.0,59,1001.0,1.0,2.0,CBA
BI_C_Digit,12.0,2.0,60,888.0,1.0,3.0,CBA
BI_C_Digit,12.0,2.0,61,621.0,1.0,1.0,CBA
BI_C_Digit,12.0,2.0,62,731.0,1.0,3.0,ABA
BI_C_Digit,12.0,2.0,63,843.0,1.0,1.0,ABA
BI_C_Digit,12.0,2.0,64,539.0,1.0,2.0,CBA
BI_C_Digit,12.0,2.0,65,469.0,1.0,3.0,CBA
BI_C_Digit,12.0,2.0,66,1043.0,1.0,1.0,CBA
BI_C_Digit,12.0,2.0,67,666.0,1.0,3.0,ABA
BI_C_Digit,12.0,2.0,68,524.0,1.0,2.0,CBA
BI_C_Digit,12.0,2.0,69,950.0,1.0,1.0,CBA
BI_C_Digit,12.0,2.0,70,1220.0,1.0,3.0,CBA
BI_C_Digit,12.0,2.0,71,855.0,1.0,1.0,ABA
BI_C_Digit,12.0,2.0,72,986.0,1.0,2.0,CBA
BI_C_Digit,12.0,2.0,73,873.0,1.0,1.0,ABA
BI_C_Digit,12.0,2.0,74,422.0,1.0,2.0,ABA
BI_C_Digit,12.0,2.0,75,1051.0,1.0,3.0,CBA
BI_C_Digit,12.0,2.0,76,1008.0,1.0,1.0,CBA
BI_C_Digit,12.0,2.0,77,442.0,1.0,2.0,CBA
BI_C_Digit,12.0,2.0,78,584.0,1.0,1.0,ABA
BI_C_Digit,12.0,2.0,79,1033.0,1.0,3.0,CBA
BI_C_Digit,12.0,2.0,80,1844.0,1.0,2.0,CBA
BI_C_Digit,12.0,2.0,81,711.0,1.0,3.0,ABA
BI_C_Digit,12.0,2.0,82,752.0,1.0,2.0,ABA
BI_C_Digit,12.0,2.0,83,705.0,1.0,3.0,ABA
BI_C_Digit,12.0,2.0,84,797.0,1.0,2.0,ABA
BI_C_Digit,12.0,2.0,85,1013.0,1.0,1.0,CBA
BI_C_Digit,12.0,2.0,86,2128.0,1.0,2.0,ABA
BI_C_Digit,12.0,2.0,87,1256.0,0.0,3.0,CBA
BI_C_Digit,12.0,2.0,88,348.0,1.0,1.0,CBA
BI_C_Digit,12.0,2.0,89,504.0,1.0,3.0,ABA
BI_C_Digit,12.0,2.0,90,448.0,1.0,1.0,ABA
BI_C_Digit,12.0,2.0,91,436.0,0.0,3.0,ABA
BI_C_Digit,12.0,2.0,92,1096.0,1.0,1.0,ABA
BI_C_Digit,12.0,2.0,93,475.0,1.0,2.0,CBA
BI_C_Digit,12.0,2.0,94,532.0,1.0,1.0,ABA
BI_C_Digit,12.0,2.0,95,424.0,1.0,2.0,ABA
BI_C_Digit,12.0,2.0,96,510.0,0.0,3.0,CBA
BI_C_Digit,12.0,2.0,97,1316.0,1.0,2.0,ABA
BI_C_Digit,12.0,2.0,98,558.0,1.0,3.0,ABA
BI_C_Digit,12.0,2.0,99,1084.0,1.0,2.0,ABA
BI_C_Digit,12.0,2.0,100,1285.0,1.0,3.0,ABA
BI_C_Digit,12.0,2.0,101,1418.0,1.0,2.0,ABA
BI_C_Digit,12.0,2.0,102,2634.0,1.0,1.0,CBA
BI_C_Digit,12.0,2.0,103,733.0,1.0,3.0,CBA
BI_C_Digit,12.0,2.0,104,634.0,1.0,2.0,CBA
BI_C_Digit,12.0,2.0,105,984.0,1.0,1.0,CBA
BI_C_Digit,12.0,2.0,106,760.0,1.0,3.0,CBA
BI_C_Digit,12.0,2.0,107,799.0,1.0,2.0,CBA
BI_C_Digit,12.0,2.0,108,1268.0,1.0,1.0,CBA
BI_C_Digit,12.0,2.0,109,1166.0,1.0,2.0,ABA
BI_C_Digit,12.0,2.0,110,1296.0,1.0,3.0,CBA
BI_C_Digit,12.0,2.0,111,775.0,1.0,2.0,ABA
BI_C_Digit,12.0,2.0,112,443.0,1.0,1.0,CBA
BI_C_Digit,12.0,2.0,113,456.0,1.0,3.0,CBA
BI_C_Digit,12.0,2.0,114,549.0,1.0,2.0,CBA
BI_C_Digit,12.0,2.0,115,1177.0,1.0,1.0,CBA
BI_C_Digit,12.0,2.0,116,979.0,1.0,2.0,ABA
BI_C_Digit,12.0,2.0,117,609.0,1.0,3.0,CBA
BI_C_Digit,12.0,2.0,118,686.0,1.0,2.0,ABA
BI_C_Digit,12.0,2.0,119,926.0,0.0,3.0,ABA
BI_C_Digit,12.0,2.0,120,1431.0,1.0,2.0,ABA
BI_C_Digit,12.0,3.0,1,1044.0,1.0,3.0,0.0
BI_C_Digit,12.0,3.0,2,402.0,1.0,2.0,0.0
BI_C_Digit,12.0,3.0,3,567.0,1.0,3.0,ABA
BI_C_Digit,12.0,3.0,4,394.0,1.0,2.0,ABA
BI_C_Digit,12.0,3.0,5,391.0,0.0,3.0,ABA
BI_C_Digit,12.0,3.0,6,1184.0,1.0,1.0,CBA
BI_C_Digit,12.0,3.0,7,428.0,1.0,2.0,CBA
BI_C_Digit,12.0,3.0,8,345.0,1.0,1.0,ABA
BI_C_Digit,12.0,3.0,9,456.0,1.0,2.0,ABA
BI_C_Digit,12.0,3.0,10,942.0,1.0,1.0,ABA
BI_C_Digit,12.0,3.0,11,658.0,1.0,2.0,ABA
BI_C_Digit,12.0,3.0,12,575.0,1.0,3.0,CBA
BI_C_Digit,12.0,3.0,13,1191.0,1.0,2.0,ABA
BI_C_Digit,12.0,3.0,14,1006.0,0.0,3.0,ABA
BI_C_Digit,12.0,3.0,15,575.0,1.0,1.0,CBA
BI_C_Digit,12.0,3.0,16,3945.0,1.0,3.0,ABA
BI_C_Digit,12.0,3.0,17,848.0,1.0,1.0,ABA
BI_C_Digit,12.0,3.0,18,1485.0,1.0,3.0,ABA
BI_C_Digit,12.0,3.0,19,652.0,1.0,1.0,ABA
BI_C_Digit,12.0,3.0,20,1177.0,1.0,3.0,ABA
BI_C_Digit,12.0,3.0,21,688.0,1.0,2.0,CBA
BI_C_Digit,12.0,3.0,22,619.0,1.0,1.0,CBA
BI_C_Digit,12.0,3.0,23,714.0,1.0,3.0,CBA
BI_C_Digit,12.0,3.0,24,765.0,1.0,2.0,CBA
BI_C_Digit,12.0,3.0,25,1340.0,1.0,3.0,ABA
BI_C_Digit,12.0,3.0,26,722.0,1.0,1.0,CBA
BI_C_Digit,12.0,3.0,27,1059.0,1.0,2.0,CBA
BI_C_Digit,12.0,3.0,28,864.0,1.0,1.0,ABA
BI_C_Digit,12.0,3.0,29,2770.0,0.0,3.0,CBA
BI_C_Digit,12.0,3.0,30,819.0,1.0,1.0,ABA
BI_C_Digit,12.0,3.0,31,1434.0,1.0,2.0,CBA
BI_C_Digit,12.0,3.0,32,504.0,1.0,1.0,ABA
BI_C_Digit,12.0,3.0,33,649.0,1.0,2.0,ABA
BI_C_Digit,12.0,3.0,34,480.0,1.0,3.0,CBA
BI_C_Digit,12.0,3.0,35,882.0,1.0,2.0,ABA
BI_C_Digit,12.0,3.0,36,782.0,1.0,1.0,CBA
BI_C_Digit,12.0,3.0,37,459.0,1.0,2.0,ABA
BI_C_Digit,12.0,3.0,38,536.0,1.0,3.0,CBA
BI_C_Digit,12.0,3.0,39,469.0,1.0,1.0,CBA
BI_C_Digit,12.0,3.0,40,627.0,1.0,2.0,CBA
BI_C_Digit,12.0,3.0,41,914.0,1.0,3.0,CBA
BI_C_Digit,12.0,3.0,42,1089.0,0.0,1.0,CBA
BI_C_Digit,12.0,3.0,43,810.0,0.0,3.0,ABA
BI_C_Digit,12.0,3.0,44,562.0,1.0,1.0,ABA
BI_C_Digit,12.0,3.0,45,647.0,0.0,2.0,CBA
BI_C_Digit,12.0,3.0,46,418.0,1.0,1.0,ABA
BI_C_Digit,12.0,3.0,47,390.0,0.0,3.0,CBA
BI_C_Digit,12.0,3.0,48,393.0,0.0,2.0,CBA
BI_C_Digit,12.0,3.0,49,807.0,1.0,1.0,CBA
BI_C_Digit,12.0,3.0,50,1098.0,1.0,3.0,CBA
BI_C_Digit,12.0,3.0,51,368.0,1.0,2.0,CBA
BI_C_Digit,12.0,3.0,52,734.0,1.0,3.0,ABA
BI_C_Digit,12.0,3.0,53,923.0,1.0,1.0,CBA
BI_C_Digit,12.0,3.0,54,498.0,1.0,2.0,CBA
BI_C_Digit,12.0,3.0,55,588.0,1.0,3.0,CBA
BI_C_Digit,12.0,3.0,56,1943.0,1.0,2.0,ABA
BI_C_Digit,12.0,3.0,57,654.0,1.0,1.0,CBA
BI_C_Digit,12.0,3.0,58,717.0,1.0,2.0,ABA
BI_C_Digit,12.0,3.0,59,1288.0,1.0,3.0,CBA
BI_C_Digit,12.0,3.0,60,782.0,1.0,1.0,CBA
BI_C_Digit,12.0,3.0,61,1568.0,1.0,2.0,CBA
BI_C_Digit,12.0,3.0,62,708.0,1.0,1.0,ABA
BI_C_Digit,12.0,3.0,63,1116.0,1.0,2.0,ABA
BI_C_Digit,12.0,3.0,64,840.0,1.0,3.0,CBA
BI_C_Digit,12.0,3.0,65,1364.0,1.0,2.0,ABA
BI_C_Digit,12.0,3.0,66,1546.0,1.0,3.0,ABA
BI_C_Digit,12.0,3.0,67,424.0,1.0,1.0,CBA
BI_C_Digit,12.0,3.0,68,884.0,1.0,2.0,CBA
BI_C_Digit,12.0,3.0,69,709.0,1.0,3.0,CBA
BI_C_Digit,12.0,3.0,70,942.0,1.0,1.0,CBA
BI_C_Digit,12.0,3.0,71,454.0,1.0,2.0,CBA
BI_C_Digit,12.0,3.0,72,461.0,1.0,1.0,ABA
BI_C_Digit,12.0,3.0,73,521.0,1.0,2.0,ABA
BI_C_Digit,12.0,3.0,74,533.0,1.0,1.0,ABA
BI_C_Digit,12.0,3.0,75,703.0,0.0,3.0,CBA
BI_C_Digit,12.0,3.0,76,444.0,1.0,1.0,ABA
BI_C_Digit,12.0,3.0,77,449.0,1.0,2.0,CBA
BI_C_Digit,12.0,3.0,78,525.0,1.0,3.0,CBA
BI_C_Digit,12.0,3.0,79,1014.0,1.0,2.0,ABA
BI_C_Digit,12.0,3.0,80,1001.0,1.0,1.0,CBA
BI_C_Digit,12.0,3.0,81,2003.0,1.0,2.0,ABA
BI_C_Digit,12.0,3.0,82,2179.0,0.0,1.0,ABA
BI_C_Digit,12.0,3.0,83,696.0,1.0,2.0,ABA
BI_C_Digit,12.0,3.0,84,484.0,1.0,3.0,CBA
BI_C_Digit,12.0,3.0,85,969.0,1.0,2.0,ABA
BI_C_Digit,12.0,3.0,86,492.0,1.0,3.0,ABA
BI_C_Digit,12.0,3.0,87,1373.0,1.0,2.0,ABA
BI_C_Digit,12.0,3.0,88,1753.0,1.0,1.0,CBA
BI_C_Digit,12.0,3.0,89,474.0,1.0,2.0,ABA
BI_C_Digit,12.0,3.0,90,1266.0,1.0,3.0,CBA
BI_C_Digit,12.0,3.0,91,791.0,1.0,1.0,CBA
BI_C_Digit,12.0,3.0,92,1477.0,1.0,3.0,ABA
BI_C_Digit,12.0,3.0,93,1293.0,1.0,1.0,ABA
BI_C_Digit,12.0,3.0,94,1241.0,1.0,3.0,ABA
BI_C_Digit,12.0,3.0,95,1421.0,1.0,2.0,CBA
BI_C_Digit,12.0,3.0,96,504.0,1.0,1.0,CBA
BI_C_Digit,12.0,3.0,97,770.0,1.0,2.0,ABA
BI_C_Digit,12.0,3.0,98,445.0,1.0,3.0,CBA
BI_C_Digit,12.0,3.0,99,506.0,1.0,2.0,ABA
BI_C_Digit,12.0,3.0,100,665.0,1.0,3.0,ABA
BI_C_Digit,12.0,3.0,101,1756.0,1.0,1.0,CBA
BI_C_Digit,12.0,3.0,102,921.0,1.0,2.0,CBA
BI_C_Digit,12.0,3.0,103,745.0,1.0,1.0,ABA
BI_C_Digit,12.0,3.0,104,521.0,1.0,3.0,CBA
BI_C_Digit,12.0,3.0,105,1082.0,1.0,2.0,CBA
BI_C_Digit,12.0,3.0,106,811.0,1.0,1.0,CBA
BI_C_Digit,12.0,3.0,107,743.0,1.0,3.0,CBA
BI_C_Digit,12.0,3.0,108,575.0,1.0,1.0,ABA
BI_C_Digit,12.0,3.0,109,649.0,1.0,3.0,ABA
BI_C_Digit,12.0,3.0,110,364.0,1.0,2.0,CBA
BI_C_Digit,12.0,3.0,111,488.0,1.0,3.0,ABA
BI_C_Digit,12.0,3.0,112,686.0,1.0,1.0,CBA
BI_C_Digit,12.0,3.0,113,691.0,1.0,3.0,ABA
BI_C_Digit,12.0,3.0,114,542.0,1.0,1.0,ABA
BI_C_Digit,12.0,3.0,115,519.0,0.0,3.0,ABA
BI_C_Digit,12.0,3.0,116,464.0,0.0,1.0,ABA
BI_C_Digit,12.0,3.0,117,504.0,1.0,3.0,ABA
BI_C_Digit,12.0,3.0,118,817.0,1.0,1.0,ABA
BI_C_Digit,12.0,3.0,119,440.0,1.0,3.0,ABA
BI_C_Digit,12.0,3.0,120,388.0,1.0,2.0,CBA
BI_C_Digit,12.0,4.0,1,456.0,1.0,3.0,0.0
BI_C_Digit,12.0,4.0,2,383.0,1.0,2.0,0.0
BI_C_Digit,12.0,4.0,3,329.0,1.0,3.0,ABA
BI_C_Digit,12.0,4.0,4,363.0,1.0,1.0,CBA
BI_C_Digit,12.0,4.0,5,622.0,1.0,3.0,ABA
BI_C_Digit,12.0,4.0,6,552.0,1.0,2.0,CBA
BI_C_Digit,12.0,4.0,7,623.0,1.0,1.0,CBA
BI_C_Digit,12.0,4.0,8,422.0,1.0,3.0,CBA
BI_C_Digit,12.0,4.0,9,2276.0,1.0,1.0,ABA
BI_C_Digit,12.0,4.0,10,590.0,1.0,3.0,ABA
BI_C_Digit,12.0,4.0,11,403.0,1.0,2.0,CBA
BI_C_Digit,12.0,4.0,12,419.0,1.0,1.0,CBA
BI_C_Digit,12.0,4.0,13,563.0,1.0,3.0,CBA
BI_C_Digit,12.0,4.0,14,533.0,1.0,2.0,CBA
BI_C_Digit,12.0,4.0,15,427.0,1.0,3.0,ABA
BI_C_Digit,12.0,4.0,16,441.0,1.0,1.0,CBA
BI_C_Digit,12.0,4.0,17,604.0,1.0,3.0,ABA
BI_C_Digit,12.0,4.0,18,407.0,1.0,1.0,ABA
BI_C_Digit,12.0,4.0,19,680.0,1.0,2.0,CBA
BI_C_Digit,12.0,4.0,20,493.0,1.0,3.0,CBA
BI_C_Digit,12.0,4.0,21,1057.0,1.0,1.0,CBA
BI_C_Digit,12.0,4.0,22,592.0,1.0,3.0,ABA
BI_C_Digit,12.0,4.0,23,677.0,1.0,1.0,ABA
BI_C_Digit,12.0,4.0,24,539.0,1.0,2.0,CBA
BI_C_Digit,12.0,4.0,25,459.0,1.0,1.0,ABA
BI_C_Digit,12.0,4.0,26,541.0,1.0,2.0,ABA
BI_C_Digit,12.0,4.0,27,586.0,1.0,3.0,CBA
BI_C_Digit,12.0,4.0,28,440.0,1.0,1.0,CBA
BI_C_Digit,12.0,4.0,29,458.0,1.0,3.0,ABA
BI_C_Digit,12.0,4.0,30,413.0,1.0,2.0,CBA
BI_C_Digit,12.0,4.0,31,579.0,1.0,1.0,CBA
BI_C_Digit,12.0,4.0,32,631.0,1.0,2.0,ABA
BI_C_Digit,12.0,4.0,33,600.0,1.0,3.0,CBA
BI_C_Digit,12.0,4.0,34,404.0,1.0,1.0,CBA
BI_C_Digit,12.0,4.0,35,1090.0,0.0,3.0,ABA
BI_C_Digit,12.0,4.0,36,1637.0,0.0,2.0,CBA
BI_C_Digit,12.0,4.0,37,1065.0,1.0,1.0,CBA
BI_C_Digit,12.0,4.0,38,683.0,1.0,2.0,ABA
BI_C_Digit,12.0,4.0,39,538.0,1.0,3.0,CBA
BI_C_Digit,12.0,4.0,40,436.0,1.0,2.0,ABA
BI_C_Digit,12.0,4.0,41,422.0,1.0,1.0,CBA
BI_C_Digit,12.0,4.0,42,812.0,1.0,2.0,ABA
BI_C_Digit,12.0,4.0,43,1307.0,1.0,1.0,ABA
BI_C_Digit,12.0,4.0,44,542.0,1.0,3.0,CBA
BI_C_Digit,12.0,4.0,45,874.0,1.0,2.0,CBA
BI_C_Digit,12.0,4.0,46,480.0,1.0,1.0,CBA
BI_C_Digit,12.0,4.0,47,792.0,1.0,2.0,ABA
BI_C_Digit,12.0,4.0,48,452.0,0.0,3.0,CBA
BI_C_Digit,12.0,4.0,49,674.0,1.0,2.0,ABA
BI_C_Digit,12.0,4.0,50,508.0,0.0,3.0,ABA
BI_C_Digit,12.0,4.0,51,761.0,1.0,2.0,ABA
BI_C_Digit,12.0,4.0,52,895.0,1.0,1.0,CBA
BI_C_Digit,12.0,4.0,53,1821.0,1.0,3.0,CBA
BI_C_Digit,12.0,4.0,54,386.0,1.0,2.0,CBA
BI_C_Digit,12.0,4.0,55,452.0,1.0,3.0,ABA
BI_C_Digit,12.0,4.0,56,1312.0,1.0,2.0,ABA
BI_C_Digit,12.0,4.0,57,975.0,1.0,3.0,ABA
BI_C_Digit,12.0,4.0,58,1081.0,1.0,2.0,ABA
BI_C_Digit,12.0,4.0,59,644.0,1.0,3.0,ABA
BI_C_Digit,12.0,4.0,60,1106.0,1.0,2.0,ABA
BI_C_Digit,12.0,4.0,61,3150.0,1.0,3.0,ABA
BI_C_Digit,12.0,4.0,62,1591.0,1.0,1.0,CBA
BI_C_Digit,12.0,4.0,63,845.0,0.0,3.0,ABA
BI_C_Digit,12.0,4.0,64,460.0,1.0,1.0,ABA
BI_C_Digit,12.0,4.0,65,389.0,1.0,2.0,CBA
BI_C_Digit,12.0,4.0,66,348.0,1.0,1.0,ABA
BI_C_Digit,12.0,4.0,67,386.0,1.0,2.0,ABA
BI_C_Digit,12.0,4.0,68,574.0,1.0,3.0,CBA
BI_C_Digit,12.0,4.0,69,470.0,0.0,1.0,CBA
BI_C_Digit,12.0,4.0,70,537.0,1.0,2.0,CBA
BI_C_Digit,12.0,4.0,71,601.0,0.0,3.0,CBA
BI_C_Digit,12.0,4.0,72,613.0,1.0,2.0,ABA
BI_C_Digit,12.0,4.0,73,564.0,0.0,3.0,ABA
BI_C_Digit,12.0,4.0,74,487.0,1.0,1.0,CBA
BI_C_Digit,12.0,4.0,75,826.0,1.0,2.0,CBA
BI_C_Digit,12.0,4.0,76,1011.0,1.0,1.0,ABA
BI_C_Digit,12.0,4.0,77,4173.0,1.0,2.0,ABA
BI_C_Digit,12.0,4.0,78,546.0,0.0,3.0,CBA
BI_C_Digit,12.0,4.0,79,340.0,1.0,1.0,CBA
BI_C_Digit,12.0,4.0,80,370.0,1.0,2.0,CBA
BI_C_Digit,12.0,4.0,81,442.0,1.0,1.0,ABA
BI_C_Digit,12.0,4.0,82,579.0,1.0,3.0,CBA
BI_C_Digit,12.0,4.0,83,558.0,0.0,2.0,CBA
BI_C_Digit,12.0,4.0,84,1878.0,1.0,1.0,CBA
BI_C_Digit,12.0,4.0,85,790.0,1.0,3.0,CBA
BI_C_Digit,12.0,4.0,86,1151.0,1.0,1.0,ABA
BI_C_Digit,12.0,4.0,87,593.0,1.0,3.0,ABA
BI_C_Digit,12.0,4.0,88,766.0,1.0,1.0,ABA
BI_C_Digit,12.0,4.0,89,550.0,1.0,3.0,ABA
BI_C_Digit,12.0,4.0,90,916.0,1.0,2.0,CBA
BI_C_Digit,12.0,4.0,91,881.0,1.0,3.0,ABA
BI_C_Digit,12.0,4.0,92,740.0,1.0,2.0,ABA
BI_C_Digit,12.0,4.0,93,693.0,1.0,1.0,CBA
BI_C_Digit,12.0,4.0,94,423.0,1.0,3.0,CBA
BI_C_Digit,12.0,4.0,95,814.0,1.0,2.0,CBA
BI_C_Digit,12.0,4.0,96,485.0,1.0,3.0,ABA
BI_C_Digit,12.0,4.0,97,465.0,1.0,1.0,CBA
BI_C_Digit,12.0,4.0,98,1427.0,1.0,2.0,CBA
BI_C_Digit,12.0,4.0,99,490.0,1.0,1.0,ABA
BI_C_Digit,12.0,4.0,100,421.0,1.0,3.0,CBA
BI_C_Digit,12.0,4.0,101,465.0,1.0,1.0,ABA
BI_C_Digit,12.0,4.0,102,716.0,1.0,3.0,ABA
BI_C_Digit,12.0,4.0,103,876.0,1.0,2.0,CBA
BI_C_Digit,12.0,4.0,104,688.0,1.0,1.0,CBA
BI_C_Digit,12.0,4.0,105,1031.0,1.0,2.0,ABA
BI_C_Digit,12.0,4.0,106,924.0,1.0,1.0,ABA
BI_C_Digit,12.0,4.0,107,514.0,0.0,3.0,CBA
BI_C_Digit,12.0,4.0,108,1017.0,1.0,1.0,ABA
BI_C_Digit,12.0,4.0,109,637.0,1.0,3.0,ABA
BI_C_Digit,12.0,4.0,110,1353.0,1.0,2.0,CBA
BI_C_Digit,12.0,4.0,111,1011.0,1.0,1.0,CBA
BI_C_Digit,12.0,4.0,112,1043.0,1.0,3.0,CBA
BI_C_Digit,12.0,4.0,113,581.0,1.0,1.0,ABA
BI_C_Digit,12.0,4.0,114,694.0,1.0,2.0,CBA
BI_C_Digit,12.0,4.0,115,374.0,1.0,1.0,ABA
BI_C_Digit,12.0,4.0,116,779.0,1.0,2.0,ABA
BI_C_Digit,12.0,4.0,117,647.0,1.0,1.0,ABA
BI_C_Digit,12.0,4.0,118,363.0,1.0,2.0,ABA
BI_C_Digit,12.0,4.0,119,666.0,1.0,1.0,ABA
BI_C_Digit,12.0,4.0,120,624.0,1.0,2.0,ABA
BI_C_Digit,13.0,1.0,1,1517.0,1.0,2.0,0.0
BI_C_Digit,13.0,1.0,2,931.0,1.0,1.0,0.0
BI_C_Digit,13.0,1.0,3,735.0,1.0,2.0,ABA
BI_C_Digit,13.0,1.0,4,1140.0,1.0,3.0,CBA
BI_C_Digit,13.0,1.0,5,1135.0,1.0,2.0,ABA
BI_C_Digit,13.0,1.0,6,546.0,1.0,1.0,CBA
BI_C_Digit,13.0,1.0,7,1391.0,1.0,2.0,ABA
BI_C_Digit,13.0,1.0,8,1641.0,1.0,3.0,CBA
BI_C_Digit,13.0,1.0,9,1589.0,1.0,1.0,CBA
BI_C_Digit,13.0,1.0,10,788.0,1.0,2.0,CBA
BI_C_Digit,13.0,1.0,11,1743.0,1.0,3.0,CBA
BI_C_Digit,13.0,1.0,12,1558.0,1.0,1.0,CBA
BI_C_Digit,13.0,1.0,13,1756.0,1.0,3.0,ABA
BI_C_Digit,13.0,1.0,14,1588.0,1.0,2.0,CBA
BI_C_Digit,13.0,1.0,15,439.0,1.0,1.0,CBA
BI_C_Digit,13.0,1.0,16,1697.0,1.0,3.0,CBA
BI_C_Digit,13.0,1.0,17,1148.0,1.0,1.0,ABA
BI_C_Digit,13.0,1.0,18,551.0,1.0,3.0,ABA
BI_C_Digit,13.0,1.0,19,1161.0,1.0,1.0,ABA
BI_C_Digit,13.0,1.0,20,1416.0,1.0,3.0,ABA
BI_C_Digit,13.0,1.0,21,1191.0,1.0,1.0,ABA
BI_C_Digit,13.0,1.0,22,1639.0,1.0,3.0,ABA
BI_C_Digit,13.0,1.0,23,1512.0,1.0,2.0,CBA
BI_C_Digit,13.0,1.0,24,765.0,1.0,1.0,CBA
BI_C_Digit,13.0,1.0,25,1404.0,1.0,2.0,ABA
BI_C_Digit,13.0,1.0,26,1628.0,1.0,3.0,CBA
BI_C_Digit,13.0,1.0,27,649.0,1.0,2.0,ABA
BI_C_Digit,13.0,1.0,28,1427.0,1.0,1.0,CBA
BI_C_Digit,13.0,1.0,29,990.0,1.0,3.0,CBA
BI_C_Digit,13.0,1.0,30,1663.0,1.0,1.0,ABA
BI_C_Digit,13.0,1.0,31,1448.0,1.0,3.0,ABA
BI_C_Digit,13.0,1.0,32,942.0,1.0,2.0,CBA
BI_C_Digit,13.0,1.0,33,1038.0,1.0,1.0,CBA
BI_C_Digit,13.0,1.0,34,1331.0,1.0,2.0,ABA
BI_C_Digit,13.0,1.0,35,1798.0,1.0,3.0,CBA
BI_C_Digit,13.0,1.0,36,1296.0,1.0,1.0,CBA
BI_C_Digit,13.0,1.0,37,685.0,1.0,2.0,CBA
BI_C_Digit,13.0,1.0,38,787.0,1.0,1.0,ABA
BI_C_Digit,13.0,1.0,39,913.0,1.0,3.0,CBA
BI_C_Digit,13.0,1.0,40,1785.0,1.0,1.0,ABA
BI_C_Digit,13.0,1.0,41,1263.0,1.0,3.0,ABA
BI_C_Digit,13.0,1.0,42,838.0,1.0,1.0,ABA
BI_C_Digit,13.0,1.0,43,1681.0,1.0,3.0,ABA
BI_C_Digit,13.0,1.0,44,1374.0,1.0,1.0,ABA
BI_C_Digit,13.0,1.0,45,906.0,1.0,2.0,CBA
BI_C_Digit,13.0,1.0,46,637.0,1.0,1.0,ABA
BI_C_Digit,13.0,1.0,47,1054.0,1.0,2.0,ABA
BI_C_Digit,13.0,1.0,48,2354.0,1.0,3.0,CBA
BI_C_Digit,13.0,1.0,49,1175.0,1.0,2.0,ABA
BI_C_Digit,13.0,1.0,50,2000.0,1.0,3.0,ABA
BI_C_Digit,13.0,1.0,51,537.0,1.0,1.0,CBA
BI_C_Digit,13.0,1.0,52,848.0,1.0,3.0,ABA
BI_C_Digit,13.0,1.0,53,684.0,1.0,2.0,CBA
BI_C_Digit,13.0,1.0,54,1154.0,1.0,1.0,CBA
BI_C_Digit,13.0,1.0,55,1192.0,1.0,2.0,ABA
BI_C_Digit,13.0,1.0,56,789.0,1.0,1.0,ABA
BI_C_Digit,13.0,1.0,57,672.0,1.0,3.0,CBA
BI_C_Digit,13.0,1.0,58,1474.0,1.0,1.0,ABA
BI_C_Digit,13.0,1.0,59,1195.0,1.0,2.0,CBA
BI_C_Digit,13.0,1.0,60,779.0,1.0,3.0,CBA
BI_C_Digit,13.0,1.0,61,1440.0,1.0,1.0,CBA
BI_C_Digit,13.0,1.0,62,1377.0,1.0,3.0,ABA
BI_C_Digit,13.0,1.0,63,516.0,1.0,1.0,ABA
BI_C_Digit,13.0,1.0,64,1014.0,1.0,2.0,CBA
BI_C_Digit,13.0,1.0,65,2442.0,1.0,3.0,CBA
BI_C_Digit,13.0,1.0,66,1519.0,1.0,1.0,CBA
BI_C_Digit,13.0,1.0,67,1805.0,1.0,3.0,ABA
BI_C_Digit,13.0,1.0,68,675.0,1.0,2.0,CBA
BI_C_Digit,13.0,1.0,69,778.0,1.0,1.0,CBA
BI_C_Digit,13.0,1.0,70,734.0,1.0,3.0,CBA
BI_C_Digit,13.0,1.0,71,429.0,1.0,1.0,ABA
BI_C_Digit,13.0,1.0,72,668.0,1.0,2.0,CBA
BI_C_Digit,13.0,1.0,73,649.0,1.0,1.0,ABA
BI_C_Digit,13.0,1.0,74,2174.0,1.0,2.0,ABA
BI_C_Digit,13.0,1.0,75,899.0,1.0,3.0,CBA
BI_C_Digit,13.0,1.0,76,490.0,1.0,1.0,CBA
BI_C_Digit,13.0,1.0,77,909.0,1.0,2.0,CBA
BI_C_Digit,13.0,1.0,78,656.0,1.0,1.0,ABA
BI_C_Digit,13.0,1.0,79,1154.0,1.0,3.0,CBA
BI_C_Digit,13.0,1.0,80,1481.0,1.0,2.0,CBA
BI_C_Digit,13.0,1.0,81,1944.0,0.0,3.0,ABA
BI_C_Digit,13.0,1.0,82,1908.0,0.0,2.0,ABA
BI_C_Digit,13.0,1.0,83,570.0,1.0,3.0,ABA
BI_C_Digit,13.0,1.0,84,1336.0,1.0,2.0,ABA
BI_C_Digit,13.0,1.0,85,804.0,1.0,1.0,CBA
BI_C_Digit,13.0,1.0,86,1577.0,1.0,2.0,ABA
BI_C_Digit,13.0,1.0,87,1358.0,1.0,3.0,CBA
BI_C_Digit,13.0,1.0,88,1669.0,1.0,1.0,CBA
BI_C_Digit,13.0,1.0,89,1629.0,1.0,3.0,ABA
BI_C_Digit,13.0,1.0,90,553.0,1.0,1.0,ABA
BI_C_Digit,13.0,1.0,91,1822.0,1.0,3.0,ABA
BI_C_Digit,13.0,1.0,92,1208.0,1.0,1.0,ABA
BI_C_Digit,13.0,1.0,93,1310.0,1.0,2.0,CBA
BI_C_Digit,13.0,1.0,94,708.0,1.0,1.0,ABA
BI_C_Digit,13.0,1.0,95,1590.0,1.0,2.0,ABA
BI_C_Digit,13.0,1.0,96,1536.0,1.0,3.0,CBA
BI_C_Digit,13.0,1.0,97,1455.0,1.0,2.0,ABA
BI_C_Digit,13.0,1.0,98,2005.0,1.0,3.0,ABA
BI_C_Digit,13.0,1.0,99,1129.0,1.0,2.0,ABA
BI_C_Digit,13.0,1.0,100,2010.0,1.0,3.0,ABA
BI_C_Digit,13.0,1.0,101,635.0,1.0,2.0,ABA
BI_C_Digit,13.0,1.0,102,1187.0,1.0,1.0,CBA
BI_C_Digit,13.0,1.0,103,653.0,1.0,3.0,CBA
BI_C_Digit,13.0,1.0,104,720.0,1.0,2.0,CBA
BI_C_Digit,13.0,1.0,105,667.0,1.0,1.0,CBA
BI_C_Digit,13.0,1.0,106,624.0,1.0,3.0,CBA
BI_C_Digit,13.0,1.0,107,658.0,0.0,2.0,CBA
BI_C_Digit,13.0,1.0,108,1582.0,1.0,1.0,CBA
BI_C_Digit,13.0,1.0,109,1155.0,1.0,2.0,ABA
BI_C_Digit,13.0,1.0,110,2607.0,1.0,3.0,CBA
BI_C_Digit,13.0,1.0,111,652.0,1.0,2.0,ABA
BI_C_Digit,13.0,1.0,112,1907.0,1.0,1.0,CBA
BI_C_Digit,13.0,1.0,113,1254.0,1.0,3.0,CBA
BI_C_Digit,13.0,1.0,114,1133.0,0.0,2.0,CBA
BI_C_Digit,13.0,1.0,115,1478.0,1.0,1.0,CBA
BI_C_Digit,13.0,1.0,116,1085.0,1.0,2.0,ABA
BI_C_Digit,13.0,1.0,117,1554.0,0.0,3.0,CBA
BI_C_Digit,13.0,1.0,118,1054.0,1.0,2.0,ABA
BI_C_Digit,13.0,1.0,119,685.0,1.0,3.0,ABA
BI_C_Digit,13.0,1.0,120,623.0,1.0,2.0,ABA
BI_C_Digit,13.0,2.0,1,1138.0,1.0,3.0,0.0
BI_C_Digit,13.0,2.0,2,1774.0,1.0,2.0,0.0
BI_C_Digit,13.0,2.0,3,584.0,1.0,3.0,ABA
BI_C_Digit,13.0,2.0,4,474.0,1.0,2.0,ABA
BI_C_Digit,13.0,2.0,5,1839.0,0.0,3.0,ABA
BI_C_Digit,13.0,2.0,6,962.0,1.0,1.0,CBA
BI_C_Digit,13.0,2.0,7,997.0,1.0,2.0,CBA
BI_C_Digit,13.0,2.0,8,812.0,1.0,1.0,ABA
BI_C_Digit,13.0,2.0,9,1367.0,1.0,2.0,ABA
BI_C_Digit,13.0,2.0,10,439.0,1.0,1.0,ABA
BI_C_Digit,13.0,2.0,11,1360.0,1.0,2.0,ABA
BI_C_Digit,13.0,2.0,12,1763.0,1.0,3.0,CBA
BI_C_Digit,13.0,2.0,13,779.0,1.0,2.0,ABA
BI_C_Digit,13.0,2.0,14,1565.0,1.0,3.0,ABA
BI_C_Digit,13.0,2.0,15,1035.0,1.0,1.0,CBA
BI_C_Digit,13.0,2.0,16,1228.0,1.0,3.0,ABA
BI_C_Digit,13.0,2.0,17,1145.0,1.0,1.0,ABA
BI_C_Digit,13.0,2.0,18,897.0,1.0,3.0,ABA
BI_C_Digit,13.0,2.0,19,557.0,1.0,1.0,ABA
BI_C_Digit,13.0,2.0,20,2518.0,1.0,3.0,ABA
BI_C_Digit,13.0,2.0,21,1957.0,1.0,2.0,CBA
BI_C_Digit,13.0,2.0,22,2804.0,1.0,1.0,CBA
BI_C_Digit,13.0,2.0,23,671.0,1.0,3.0,CBA
BI_C_Digit,13.0,2.0,24,681.0,1.0,2.0,CBA
BI_C_Digit,13.0,2.0,25,605.0,1.0,3.0,ABA
BI_C_Digit,13.0,2.0,26,1014.0,1.0,1.0,CBA
BI_C_Digit,13.0,2.0,27,1260.0,0.0,2.0,CBA
BI_C_Digit,13.0,2.0,28,731.0,1.0,1.0,ABA
BI_C_Digit,13.0,2.0,29,1618.0,1.0,3.0,CBA
BI_C_Digit,13.0,2.0,30,2279.0,1.0,1.0,ABA
BI_C_Digit,13.0,2.0,31,2157.0,1.0,2.0,CBA
BI_C_Digit,13.0,2.0,32,1423.0,1.0,1.0,ABA
BI_C_Digit,13.0,2.0,33,1605.0,1.0,2.0,ABA
BI_C_Digit,13.0,2.0,34,1861.0,1.0,3.0,CBA
BI_C_Digit,13.0,2.0,35,1738.0,1.0,2.0,ABA
BI_C_Digit,13.0,2.0,36,1885.0,1.0,1.0,CBA
BI_C_Digit,13.0,2.0,37,766.0,1.0,2.0,ABA
BI_C_Digit,13.0,2.0,38,1392.0,1.0,3.0,CBA
BI_C_Digit,13.0,2.0,39,1420.0,1.0,1.0,CBA
BI_C_Digit,13.0,2.0,40,906.0,1.0,2.0,CBA
BI_C_Digit,13.0,2.0,41,1764.0,1.0,3.0,CBA
BI_C_Digit,13.0,2.0,42,526.0,1.0,1.0,CBA
BI_C_Digit,13.0,2.0,43,514.0,1.0,3.0,ABA
BI_C_Digit,13.0,2.0,44,1047.0,1.0,1.0,ABA
BI_C_Digit,13.0,2.0,45,705.0,1.0,2.0,CBA
BI_C_Digit,13.0,2.0,46,1155.0,1.0,1.0,ABA
BI_C_Digit,13.0,2.0,47,849.0,1.0,3.0,CBA
BI_C_Digit,13.0,2.0,48,1295.0,1.0,2.0,CBA
BI_C_Digit,13.0,2.0,49,957.0,1.0,1.0,CBA
BI_C_Digit,13.0,2.0,50,862.0,1.0,3.0,CBA
BI_C_Digit,13.0,2.0,51,704.0,1.0,2.0,CBA
BI_C_Digit,13.0,2.0,52,538.0,1.0,3.0,ABA
BI_C_Digit,13.0,2.0,53,828.0,1.0,1.0,CBA
BI_C_Digit,13.0,2.0,54,1189.0,1.0,2.0,CBA
BI_C_Digit,13.0,2.0,55,557.0,1.0,3.0,CBA
BI_C_Digit,13.0,2.0,56,1124.0,1.0,2.0,ABA
BI_C_Digit,13.0,2.0,57,578.0,1.0,1.0,CBA
BI_C_Digit,13.0,2.0,58,558.0,1.0,2.0,ABA
BI_C_Digit,13.0,2.0,59,1689.0,1.0,3.0,CBA
BI_C_Digit,13.0,2.0,60,526.0,1.0,1.0,CBA
BI_C_Digit,13.0,2.0,61,1268.0,1.0,2.0,CBA
BI_C_Digit,13.0,2.0,62,568.0,1.0,1.0,ABA
BI_C_Digit,13.0,2.0,63,698.0,1.0,2.0,ABA
BI_C_Digit,13.0,2.0,64,1533.0,1.0,3.0,CBA
BI_C_Digit,13.0,2.0,65,1761.0,1.0,2.0,ABA
BI_C_Digit,13.0,2.0,66,1137.0,1.0,3.0,ABA
BI_C_Digit,13.0,2.0,67,1126.0,1.0,1.0,CBA
BI_C_Digit,13.0,2.0,68,1971.0,1.0,2.0,CBA
BI_C_Digit,13.0,2.0,69,1893.0,0.0,3.0,CBA
BI_C_Digit,13.0,2.0,70,1149.0,1.0,1.0,CBA
BI_C_Digit,13.0,2.0,71,2371.0,1.0,2.0,CBA
BI_C_Digit,13.0,2.0,72,486.0,1.0,1.0,ABA
BI_C_Digit,13.0,2.0,73,1783.0,1.0,2.0,ABA
BI_C_Digit,13.0,2.0,74,1295.0,1.0,1.0,ABA
BI_C_Digit,13.0,2.0,75,957.0,1.0,3.0,CBA
BI_C_Digit,13.0,2.0,76,1074.0,1.0,1.0,ABA
BI_C_Digit,13.0,2.0,77,776.0,1.0,2.0,CBA
BI_C_Digit,13.0,2.0,78,860.0,1.0,3.0,CBA
BI_C_Digit,13.0,2.0,79,929.0,0.0,2.0,ABA
BI_C_Digit,13.0,2.0,80,1182.0,1.0,1.0,CBA
BI_C_Digit,13.0,2.0,81,642.0,1.0,2.0,ABA
BI_C_Digit,13.0,2.0,82,643.0,1.0,1.0,ABA
BI_C_Digit,13.0,2.0,83,967.0,1.0,2.0,ABA
BI_C_Digit,13.0,2.0,84,639.0,1.0,3.0,CBA
BI_C_Digit,13.0,2.0,85,1498.0,1.0,2.0,ABA
BI_C_Digit,13.0,2.0,86,1098.0,1.0,3.0,ABA
BI_C_Digit,13.0,2.0,87,1941.0,1.0,2.0,ABA
BI_C_Digit,13.0,2.0,88,1644.0,1.0,1.0,CBA
BI_C_Digit,13.0,2.0,89,1135.0,1.0,2.0,ABA
BI_C_Digit,13.0,2.0,90,2936.0,1.0,3.0,CBA
BI_C_Digit,13.0,2.0,91,1008.0,1.0,1.0,CBA
BI_C_Digit,13.0,2.0,92,776.0,1.0,3.0,ABA
BI_C_Digit,13.0,2.0,93,1655.0,1.0,1.0,ABA
BI_C_Digit,13.0,2.0,94,1426.0,1.0,3.0,ABA
BI_C_Digit,13.0,2.0,95,1606.0,1.0,2.0,CBA
BI_C_Digit,13.0,2.0,96,1260.0,1.0,1.0,CBA
BI_C_Digit,13.0,2.0,97,666.0,1.0,2.0,ABA
BI_C_Digit,13.0,2.0,98,1873.0,1.0,3.0,CBA
BI_C_Digit,13.0,2.0,99,1988.0,1.0,2.0,ABA
BI_C_Digit,13.0,2.0,100,1477.0,1.0,3.0,ABA
BI_C_Digit,13.0,2.0,101,742.0,1.0,1.0,CBA
BI_C_Digit,13.0,2.0,102,1266.0,1.0,2.0,CBA
BI_C_Digit,13.0,2.0,103,957.0,1.0,1.0,ABA
BI_C_Digit,13.0,2.0,104,1550.0,1.0,3.0,CBA
BI_C_Digit,13.0,2.0,105,1291.0,1.0,2.0,CBA
BI_C_Digit,13.0,2.0,106,1093.0,1.0,1.0,CBA
BI_C_Digit,13.0,2.0,107,1204.0,1.0,3.0,CBA
BI_C_Digit,13.0,2.0,108,1148.0,1.0,1.0,ABA
BI_C_Digit,13.0,2.0,109,1306.0,0.0,3.0,ABA
BI_C_Digit,13.0,2.0,110,1110.0,1.0,2.0,CBA
BI_C_Digit,13.0,2.0,111,1562.0,1.0,3.0,ABA
BI_C_Digit,13.0,2.0,112,445.0,1.0,1.0,CBA
BI_C_Digit,13.0,2.0,113,828.0,1.0,3.0,ABA
BI_C_Digit,13.0,2.0,114,756.0,1.0,1.0,ABA
BI_C_Digit,13.0,2.0,115,1495.0,1.0,3.0,ABA
BI_C_Digit,13.0,2.0,116,692.0,1.0,1.0,ABA
BI_C_Digit,13.0,2.0,117,671.0,1.0,3.0,ABA
BI_C_Digit,13.0,2.0,118,1319.0,1.0,1.0,ABA
BI_C_Digit,13.0,2.0,119,652.0,1.0,3.0,ABA
BI_C_Digit,13.0,2.0,120,713.0,1.0,2.0,CBA
BI_C_Digit,13.0,3.0,1,919.0,1.0,3.0,0.0
BI_C_Digit,13.0,3.0,2,1259.0,1.0,2.0,0.0
BI_C_Digit,13.0,3.0,3,413.0,1.0,3.0,ABA
BI_C_Digit,13.0,3.0,4,478.0,1.0,1.0,CBA
BI_C_Digit,13.0,3.0,5,491.0,1.0,3.0,ABA
BI_C_Digit,13.0,3.0,6,1475.0,1.0,2.0,CBA
BI_C_Digit,13.0,3.0,7,1205.0,1.0,1.0,CBA
BI_C_Digit,13.0,3.0,8,961.0,1.0,3.0,CBA
BI_C_Digit,13.0,3.0,9,1641.0,1.0,1.0,ABA
BI_C_Digit,13.0,3.0,10,2239.0,1.0,3.0,ABA
BI_C_Digit,13.0,3.0,11,592.0,1.0,2.0,CBA
BI_C_Digit,13.0,3.0,12,1290.0,1.0,1.0,CBA
BI_C_Digit,13.0,3.0,13,1123.0,1.0,3.0,CBA
BI_C_Digit,13.0,3.0,14,1799.0,1.0,2.0,CBA
BI_C_Digit,13.0,3.0,15,1203.0,1.0,3.0,ABA
BI_C_Digit,13.0,3.0,16,1265.0,1.0,1.0,CBA
BI_C_Digit,13.0,3.0,17,1327.0,1.0,3.0,ABA
BI_C_Digit,13.0,3.0,18,829.0,1.0,1.0,ABA
BI_C_Digit,13.0,3.0,19,1325.0,1.0,2.0,CBA
BI_C_Digit,13.0,3.0,20,401.0,1.0,3.0,CBA
BI_C_Digit,13.0,3.0,21,670.0,1.0,1.0,CBA
BI_C_Digit,13.0,3.0,22,1389.0,1.0,3.0,ABA
BI_C_Digit,13.0,3.0,23,917.0,1.0,1.0,ABA
BI_C_Digit,13.0,3.0,24,620.0,1.0,2.0,CBA
BI_C_Digit,13.0,3.0,25,432.0,1.0,1.0,ABA
BI_C_Digit,13.0,3.0,26,527.0,1.0,2.0,ABA
BI_C_Digit,13.0,3.0,27,525.0,1.0,3.0,CBA
BI_C_Digit,13.0,3.0,28,439.0,1.0,1.0,CBA
BI_C_Digit,13.0,3.0,29,1636.0,1.0,3.0,ABA
BI_C_Digit,13.0,3.0,30,663.0,1.0,2.0,CBA
BI_C_Digit,13.0,3.0,31,1210.0,1.0,1.0,CBA
BI_C_Digit,13.0,3.0,32,622.0,0.0,2.0,ABA
BI_C_Digit,13.0,3.0,33,427.0,1.0,3.0,CBA
BI_C_Digit,13.0,3.0,34,660.0,1.0,1.0,CBA
BI_C_Digit,13.0,3.0,35,1286.0,1.0,3.0,ABA
BI_C_Digit,13.0,3.0,36,1140.0,1.0,2.0,CBA
BI_C_Digit,13.0,3.0,37,1598.0,1.0,1.0,CBA
BI_C_Digit,13.0,3.0,38,763.0,1.0,2.0,ABA
BI_C_Digit,13.0,3.0,39,1078.0,1.0,3.0,CBA
BI_C_Digit,13.0,3.0,40,1358.0,1.0,2.0,ABA
BI_C_Digit,13.0,3.0,41,952.0,1.0,1.0,CBA
BI_C_Digit,13.0,3.0,42,1069.0,1.0,2.0,ABA
BI_C_Digit,13.0,3.0,43,600.0,1.0,1.0,ABA
BI_C_Digit,13.0,3.0,44,823.0,1.0,3.0,CBA
BI_C_Digit,13.0,3.0,45,1144.0,1.0,2.0,CBA
BI_C_Digit,13.0,3.0,46,674.0,1.0,1.0,CBA
BI_C_Digit,13.0,3.0,47,1066.0,1.0,2.0,ABA
BI_C_Digit,13.0,3.0,48,1077.0,1.0,3.0,CBA
BI_C_Digit,13.0,3.0,49,535.0,1.0,2.0,ABA
BI_C_Digit,13.0,3.0,50,1482.0,1.0,3.0,ABA
BI_C_Digit,13.0,3.0,51,981.0,1.0,2.0,ABA
BI_C_Digit,13.0,3.0,52,688.0,1.0,1.0,CBA
BI_C_Digit,13.0,3.0,53,648.0,1.0,3.0,CBA
BI_C_Digit,13.0,3.0,54,759.0,1.0,2.0,CBA
BI_C_Digit,13.0,3.0,55,1244.0,1.0,3.0,ABA
BI_C_Digit,13.0,3.0,56,1109.0,1.0,2.0,ABA
BI_C_Digit,13.0,3.0,57,469.0,1.0,3.0,ABA
BI_C_Digit,13.0,3.0,58,984.0,1.0,2.0,ABA
BI_C_Digit,13.0,3.0,59,1558.0,1.0,3.0,ABA
BI_C_Digit,13.0,3.0,60,1763.0,1.0,2.0,ABA
BI_C_Digit,13.0,3.0,61,1378.0,1.0,3.0,ABA
BI_C_Digit,13.0,3.0,62,898.0,1.0,1.0,CBA
BI_C_Digit,13.0,3.0,63,859.0,1.0,3.0,ABA
BI_C_Digit,13.0,3.0,64,1452.0,1.0,1.0,ABA
BI_C_Digit,13.0,3.0,65,1397.0,1.0,2.0,CBA
BI_C_Digit,13.0,3.0,66,433.0,1.0,1.0,ABA
BI_C_Digit,13.0,3.0,67,511.0,1.0,2.0,ABA
BI_C_Digit,13.0,3.0,68,556.0,1.0,3.0,CBA
BI_C_Digit,13.0,3.0,69,520.0,1.0,1.0,CBA
BI_C_Digit,13.0,3.0,70,1306.0,1.0,2.0,CBA
BI_C_Digit,13.0,3.0,71,555.0,1.0,3.0,CBA
BI_C_Digit,13.0,3.0,72,1594.0,1.0,2.0,ABA
BI_C_Digit,13.0,3.0,73,1690.0,1.0,3.0,ABA
BI_C_Digit,13.0,3.0,74,907.0,1.0,1.0,CBA
BI_C_Digit,13.0,3.0,75,1126.0,1.0,2.0,CBA
BI_C_Digit,13.0,3.0,76,1057.0,1.0,1.0,ABA
BI_C_Digit,13.0,3.0,77,1465.0,1.0,2.0,ABA
BI_C_Digit,13.0,3.0,78,1909.0,1.0,3.0,CBA
BI_C_Digit,13.0,3.0,79,493.0,1.0,1.0,CBA
BI_C_Digit,13.0,3.0,80,552.0,1.0,2.0,CBA
BI_C_Digit,13.0,3.0,81,450.0,1.0,1.0,ABA
BI_C_Digit,13.0,3.0,82,576.0,1.0,3.0,CBA
BI_C_Digit,13.0,3.0,83,1022.0,1.0,2.0,CBA
BI_C_Digit,13.0,3.0,84,1589.0,1.0,1.0,CBA
BI_C_Digit,13.0,3.0,85,1109.0,1.0,3.0,CBA
BI_C_Digit,13.0,3.0,86,1164.0,1.0,1.0,ABA
BI_C_Digit,13.0,3.0,87,1041.0,1.0,3.0,ABA
BI_C_Digit,13.0,3.0,88,1496.0,1.0,1.0,ABA
BI_C_Digit,13.0,3.0,89,509.0,1.0,3.0,ABA
BI_C_Digit,13.0,3.0,90,1552.0,1.0,2.0,CBA
BI_C_Digit,13.0,3.0,91,1362.0,1.0,3.0,ABA
BI_C_Digit,13.0,3.0,92,962.0,1.0,2.0,ABA
BI_C_Digit,13.0,3.0,93,573.0,1.0,1.0,CBA
BI_C_Digit,13.0,3.0,94,575.0,1.0,3.0,CBA
BI_C_Digit,13.0,3.0,95,613.0,1.0,2.0,CBA
BI_C_Digit,13.0,3.0,96,524.0,1.0,3.0,ABA
BI_C_Digit,13.0,3.0,97,478.0,1.0,1.0,CBA
BI_C_Digit,13.0,3.0,98,484.0,1.0,2.0,CBA
BI_C_Digit,13.0,3.0,99,1531.0,1.0,1.0,ABA
BI_C_Digit,13.0,3.0,100,610.0,1.0,3.0,CBA
BI_C_Digit,13.0,3.0,101,783.0,1.0,1.0,ABA
BI_C_Digit,13.0,3.0,102,2967.0,1.0,3.0,ABA
BI_C_Digit,13.0,3.0,103,1341.0,1.0,2.0,CBA
BI_C_Digit,13.0,3.0,104,397.0,1.0,1.0,CBA
BI_C_Digit,13.0,3.0,105,1238.0,1.0,2.0,ABA
BI_C_Digit,13.0,3.0,106,1445.0,1.0,1.0,ABA
BI_C_Digit,13.0,3.0,107,1797.0,1.0,3.0,CBA
BI_C_Digit,13.0,3.0,108,493.0,1.0,1.0,ABA
BI_C_Digit,13.0,3.0,109,1170.0,1.0,3.0,ABA
BI_C_Digit,13.0,3.0,110,847.0,1.0,2.0,CBA
BI_C_Digit,13.0,3.0,111,426.0,1.0,1.0,CBA
BI_C_Digit,13.0,3.0,112,699.0,1.0,3.0,CBA
BI_C_Digit,13.0,3.0,113,589.0,1.0,1.0,ABA
BI_C_Digit,13.0,3.0,114,1672.0,1.0,2.0,CBA
BI_C_Digit,13.0,3.0,115,1324.0,1.0,1.0,ABA
BI_C_Digit,13.0,3.0,116,1154.0,1.0,2.0,ABA
BI_C_Digit,13.0,3.0,117,1084.0,1.0,1.0,ABA
BI_C_Digit,13.0,3.0,118,1102.0,1.0,2.0,ABA
BI_C_Digit,13.0,3.0,119,817.0,1.0,1.0,ABA
BI_C_Digit,13.0,3.0,120,839.0,1.0,2.0,ABA
BI_C_Digit,13.0,4.0,1,666.0,1.0,3.0,0.0
BI_C_Digit,13.0,4.0,2,1236.0,1.0,2.0,0.0
BI_C_Digit,13.0,4.0,3,827.0,0.0,3.0,ABA
BI_C_Digit,13.0,4.0,4,1603.0,1.0,2.0,ABA
BI_C_Digit,13.0,4.0,5,1334.0,1.0,3.0,ABA
BI_C_Digit,13.0,4.0,6,1131.0,1.0,2.0,ABA
BI_C_Digit,13.0,4.0,7,1491.0,1.0,3.0,ABA
BI_C_Digit,13.0,4.0,8,1554.0,1.0,2.0,ABA
BI_C_Digit,13.0,4.0,9,731.0,1.0,1.0,CBA
BI_C_Digit,13.0,4.0,10,798.0,1.0,2.0,ABA
BI_C_Digit,13.0,4.0,11,963.0,1.0,1.0,ABA
BI_C_Digit,13.0,4.0,12,1441.0,1.0,2.0,ABA
BI_C_Digit,13.0,4.0,13,1095.0,1.0,1.0,ABA
BI_C_Digit,13.0,4.0,14,705.0,1.0,3.0,CBA
BI_C_Digit,13.0,4.0,15,1727.0,1.0,1.0,ABA
BI_C_Digit,13.0,4.0,16,1622.0,1.0,3.0,ABA
BI_C_Digit,13.0,4.0,17,654.0,1.0,2.0,CBA
BI_C_Digit,13.0,4.0,18,598.0,1.0,1.0,CBA
BI_C_Digit,13.0,4.0,19,1771.0,1.0,3.0,CBA
BI_C_Digit,13.0,4.0,20,938.0,1.0,2.0,CBA
BI_C_Digit,13.0,4.0,21,460.0,1.0,1.0,CBA
BI_C_Digit,13.0,4.0,22,501.0,1.0,3.0,CBA
BI_C_Digit,13.0,4.0,23,1028.0,1.0,2.0,CBA
BI_C_Digit,13.0,4.0,24,934.0,1.0,3.0,ABA
BI_C_Digit,13.0,4.0,25,766.0,1.0,2.0,ABA
BI_C_Digit,13.0,4.0,26,989.0,1.0,1.0,CBA
BI_C_Digit,13.0,4.0,27,844.0,1.0,3.0,CBA
BI_C_Digit,13.0,4.0,28,715.0,1.0,2.0,CBA
BI_C_Digit,13.0,4.0,29,895.0,1.0,3.0,ABA
BI_C_Digit,13.0,4.0,30,655.0,1.0,1.0,CBA
BI_C_Digit,13.0,4.0,31,2441.0,1.0,3.0,ABA
BI_C_Digit,13.0,4.0,32,1591.0,1.0,1.0,ABA
BI_C_Digit,13.0,4.0,33,490.0,1.0,2.0,CBA
BI_C_Digit,13.0,4.0,34,848.0,1.0,3.0,CBA
BI_C_Digit,13.0,4.0,35,1509.0,1.0,1.0,CBA
BI_C_Digit,13.0,4.0,36,3439.0,1.0,2.0,CBA
BI_C_Digit,13.0,4.0,37,976.0,1.0,3.0,CBA
BI_C_Digit,13.0,4.0,38,413.0,1.0,1.0,CBA
BI_C_Digit,13.0,4.0,39,528.0,1.0,2.0,CBA
BI_C_Digit,13.0,4.0,40,373.0,1.0,1.0,ABA
BI_C_Digit,13.0,4.0,41,1033.0,1.0,2.0,ABA
BI_C_Digit,13.0,4.0,42,622.0,1.0,3.0,CBA
BI_C_Digit,13.0,4.0,43,883.0,1.0,1.0,CBA
BI_C_Digit,13.0,4.0,44,1146.0,1.0,2.0,CBA
BI_C_Digit,13.0,4.0,45,682.0,1.0,1.0,ABA
BI_C_Digit,13.0,4.0,46,2175.0,1.0,3.0,CBA
BI_C_Digit,13.0,4.0,47,585.0,1.0,1.0,ABA
BI_C_Digit,13.0,4.0,48,875.0,1.0,3.0,ABA
BI_C_Digit,13.0,4.0,49,1512.0,1.0,1.0,ABA
BI_C_Digit,13.0,4.0,50,1755.0,1.0,3.0,ABA
BI_C_Digit,13.0,4.0,51,567.0,1.0,2.0,CBA
BI_C_Digit,13.0,4.0,52,452.0,1.0,1.0,CBA
BI_C_Digit,13.0,4.0,53,1239.0,1.0,2.0,ABA
BI_C_Digit,13.0,4.0,54,2032.0,1.0,3.0,CBA
BI_C_Digit,13.0,4.0,55,1288.0,1.0,2.0,ABA
BI_C_Digit,13.0,4.0,56,406.0,1.0,1.0,CBA
BI_C_Digit,13.0,4.0,57,1052.0,1.0,2.0,ABA
BI_C_Digit,13.0,4.0,58,1121.0,1.0,1.0,ABA
BI_C_Digit,13.0,4.0,59,1128.0,1.0,2.0,ABA
BI_C_Digit,13.0,4.0,60,1894.0,1.0,1.0,ABA
BI_C_Digit,13.0,4.0,61,1013.0,1.0,2.0,ABA
BI_C_Digit,13.0,4.0,62,547.0,1.0,1.0,ABA
BI_C_Digit,13.0,4.0,63,1293.0,1.0,3.0,CBA
BI_C_Digit,13.0,4.0,64,1903.0,1.0,2.0,CBA
BI_C_Digit,13.0,4.0,65,627.0,1.0,1.0,CBA
BI_C_Digit,13.0,4.0,66,1635.0,1.0,2.0,ABA
BI_C_Digit,13.0,4.0,67,941.0,1.0,1.0,ABA
BI_C_Digit,13.0,4.0,68,1335.0,1.0,3.0,CBA
BI_C_Digit,13.0,4.0,69,1172.0,1.0,2.0,CBA
BI_C_Digit,13.0,4.0,70,449.0,1.0,1.0,CBA
BI_C_Digit,13.0,4.0,71,1924.0,1.0,3.0,CBA
BI_C_Digit,13.0,4.0,72,1565.0,1.0,2.0,CBA
BI_C_Digit,13.0,4.0,73,547.0,1.0,1.0,CBA
BI_C_Digit,13.0,4.0,74,1021.0,1.0,2.0,ABA
BI_C_Digit,13.0,4.0,75,852.0,1.0,3.0,CBA
BI_C_Digit,13.0,4.0,76,828.0,1.0,2.0,ABA
BI_C_Digit,13.0,4.0,77,1629.0,1.0,3.0,ABA
BI_C_Digit,13.0,4.0,78,1214.0,1.0,2.0,ABA
BI_C_Digit,13.0,4.0,79,1592.0,1.0,1.0,CBA
BI_C_Digit,13.0,4.0,80,1229.0,1.0,2.0,ABA
BI_C_Digit,13.0,4.0,81,773.0,1.0,3.0,CBA
BI_C_Digit,13.0,4.0,82,561.0,1.0,2.0,ABA
BI_C_Digit,13.0,4.0,83,499.0,1.0,1.0,CBA
BI_C_Digit,13.0,4.0,84,544.0,1.0,3.0,CBA
BI_C_Digit,13.0,4.0,85,1025.0,1.0,2.0,CBA
BI_C_Digit,13.0,4.0,86,1396.0,1.0,1.0,CBA
BI_C_Digit,13.0,4.0,87,1259.0,1.0,2.0,ABA
BI_C_Digit,13.0,4.0,88,518.0,1.0,1.0,ABA
BI_C_Digit,13.0,4.0,89,957.0,1.0,3.0,CBA
BI_C_Digit,13.0,4.0,90,552.0,1.0,1.0,ABA
BI_C_Digit,13.0,4.0,91,1315.0,1.0,2.0,CBA
BI_C_Digit,13.0,4.0,92,859.0,1.0,1.0,ABA
BI_C_Digit,13.0,4.0,93,736.0,1.0,3.0,CBA
BI_C_Digit,13.0,4.0,94,1170.0,1.0,2.0,CBA
BI_C_Digit,13.0,4.0,95,1325.0,1.0,3.0,ABA
BI_C_Digit,13.0,4.0,96,737.0,1.0,1.0,CBA
BI_C_Digit,13.0,4.0,97,1494.0,1.0,3.0,ABA
BI_C_Digit,13.0,4.0,98,845.0,1.0,1.0,ABA
BI_C_Digit,13.0,4.0,99,1061.0,0.0,3.0,ABA
BI_C_Digit,13.0,4.0,100,478.0,1.0,1.0,ABA
BI_C_Digit,13.0,4.0,101,1442.0,1.0,2.0,CBA
BI_C_Digit,13.0,4.0,102,1957.0,1.0,3.0,CBA
BI_C_Digit,13.0,4.0,103,596.0,1.0,1.0,CBA
BI_C_Digit,13.0,4.0,104,1489.0,1.0,3.0,ABA
BI_C_Digit,13.0,4.0,105,1145.0,1.0,2.0,CBA
BI_C_Digit,13.0,4.0,106,1754.0,1.0,3.0,ABA
BI_C_Digit,13.0,4.0,107,1050.0,1.0,2.0,ABA
BI_C_Digit,13.0,4.0,108,456.0,1.0,1.0,CBA
BI_C_Digit,13.0,4.0,109,1011.0,1.0,3.0,CBA
BI_C_Digit,13.0,4.0,110,1535.0,1.0,1.0,ABA
BI_C_Digit,13.0,4.0,111,1345.0,1.0,3.0,ABA
BI_C_Digit,13.0,4.0,112,528.0,1.0,1.0,ABA
BI_C_Digit,13.0,4.0,113,1483.0,1.0,3.0,ABA
BI_C_Digit,13.0,4.0,114,620.0,1.0,2.0,CBA
BI_C_Digit,13.0,4.0,115,566.0,1.0,1.0,CBA
BI_C_Digit,13.0,4.0,116,674.0,1.0,3.0,CBA
BI_C_Digit,13.0,4.0,117,510.0,1.0,1.0,ABA
BI_C_Digit,13.0,4.0,118,918.0,1.0,3.0,ABA
BI_C_Digit,13.0,4.0,119,751.0,1.0,2.0,CBA
BI_C_Digit,13.0,4.0,120,616.0,1.0,3.0,ABA
BI_C_Digit,14.0,1.0,1,713.0,1.0,3.0,0.0
BI_C_Digit,14.0,1.0,2,459.0,0.0,2.0,0.0
BI_C_Digit,14.0,1.0,3,778.0,0.0,3.0,ABA
BI_C_Digit,14.0,1.0,4,1243.0,1.0,2.0,ABA
BI_C_Digit,14.0,1.0,5,1148.0,0.0,3.0,ABA
BI_C_Digit,14.0,1.0,6,813.0,1.0,1.0,CBA
BI_C_Digit,14.0,1.0,7,896.0,0.0,2.0,CBA
BI_C_Digit,14.0,1.0,8,818.0,1.0,1.0,ABA
BI_C_Digit,14.0,1.0,9,834.0,0.0,2.0,ABA
BI_C_Digit,14.0,1.0,10,530.0,1.0,1.0,ABA
BI_C_Digit,14.0,1.0,11,773.0,0.0,2.0,ABA
BI_C_Digit,14.0,1.0,12,1249.0,0.0,3.0,CBA
BI_C_Digit,14.0,1.0,13,1171.0,1.0,2.0,ABA
BI_C_Digit,14.0,1.0,14,1039.0,1.0,3.0,ABA
BI_C_Digit,14.0,1.0,15,773.0,1.0,1.0,CBA
BI_C_Digit,14.0,1.0,16,1585.0,1.0,3.0,ABA
BI_C_Digit,14.0,1.0,17,913.0,1.0,1.0,ABA
BI_C_Digit,14.0,1.0,18,1418.0,1.0,3.0,ABA
BI_C_Digit,14.0,1.0,19,857.0,0.0,1.0,ABA
BI_C_Digit,14.0,1.0,20,1373.0,1.0,3.0,ABA
BI_C_Digit,14.0,1.0,21,863.0,1.0,2.0,CBA
BI_C_Digit,14.0,1.0,22,600.0,1.0,1.0,CBA
BI_C_Digit,14.0,1.0,23,955.0,0.0,3.0,CBA
BI_C_Digit,14.0,1.0,24,1023.0,0.0,2.0,CBA
BI_C_Digit,14.0,1.0,25,1585.0,0.0,3.0,ABA
