group,subject,block,trialnr,rt,accuracy,task,tasksequence
BI_C_Digit,9.0,1.0,1.0,1031.0,1.0,2.0,0.0
BI_C_Digit,9.0,1.0,2.0,1271.0,1.0,1.0,0.0
BI_C_Digit,9.0,1.0,3.0,611.0,1.0,2.0,ABA
BI_C_Digit,9.0,1.0,4.0,1399.0,1.0,3.0,CBA
BI_C_Digit,9.0,1.0,5.0,615.0,1.0,2.0,ABA
BI_C_Digit,9.0,1.0,6.0,401.0,1.0,1.0,CBA
BI_C_Digit,9.0,1.0,7.0,963.0,1.0,2.0,ABA
BI_C_Digit,9.0,1.0,8.0,584.0,1.0,3.0,CBA
BI_C_Digit,9.0,1.0,9.0,775.0,1.0,1.0,CBA
BI_C_Digit,9.0,1.0,10.0,641.0,1.0,2.0,CBA
BI_C_Digit,9.0,1.0,11.0,868.0,1.0,3.0,CBA
BI_C_Digit,9.0,1.0,12.0,437.0,1.0,1.0,CBA
BI_C_Digit,9.0,1.0,13.0,1306.0,1.0,3.0,ABA
BI_C_Digit,9.0,1.0,14.0,616.0,1.0,2.0,CBA
BI_C_Digit,9.0,1.0,15.0,565.0,1.0,1.0,CBA
BI_C_Digit,9.0,1.0,16.0,1052.0,1.0,3.0,CBA
BI_C_Digit,9.0,1.0,17.0,1519.0,1.0,1.0,ABA
BI_C_Digit,9.0,1.0,18.0,1033.0,1.0,3.0,ABA
BI_C_Digit,9.0,1.0,19.0,580.0,1.0,1.0,ABA
BI_C_Digit,9.0,1.0,20.0,1311.0,1.0,3.0,ABA
BI_C_Digit,9.0,1.0,21.0,1105.0,1.0,1.0,ABA
BI_C_Digit,9.0,1.0,22.0,1034.0,1.0,3.0,ABA
BI_C_Digit,9.0,1.0,23.0,460.0,1.0,2.0,CBA
BI_C_Digit,9.0,1.0,24.0,482.0,1.0,1.0,CBA
BI_C_Digit,9.0,1.0,25.0,379.0,1.0,2.0,ABA
BI_C_Digit,9.0,1.0,26.0,786.0,1.0,3.0,CBA
BI_C_Digit,9.0,1.0,27.0,531.0,1.0,2.0,ABA
BI_C_Digit,9.0,1.0,28.0,647.0,1.0,1.0,CBA
BI_C_Digit,9.0,1.0,29.0,709.0,1.0,3.0,CBA
BI_C_Digit,9.0,1.0,30.0,816.0,1.0,1.0,ABA
BI_C_Digit,9.0,1.0,31.0,804.0,1.0,3.0,ABA
BI_C_Digit,9.0,1.0,32.0,529.0,1.0,2.0,CBA
BI_C_Digit,9.0,1.0,33.0,718.0,1.0,1.0,CBA
BI_C_Digit,9.0,1.0,34.0,1249.0,1.0,2.0,ABA
BI_C_Digit,9.0,1.0,35.0,1341.0,1.0,3.0,CBA
BI_C_Digit,9.0,1.0,36.0,960.0,1.0,1.0,CBA
BI_C_Digit,9.0,1.0,37.0,470.0,1.0,2.0,CBA
BI_C_Digit,9.0,1.0,38.0,505.0,0.0,1.0,ABA
BI_C_Digit,9.0,1.0,39.0,935.0,1.0,3.0,CBA
BI_C_Digit,9.0,1.0,40.0,433.0,1.0,1.0,ABA
BI_C_Digit,9.0,1.0,41.0,2026.0,1.0,3.0,ABA
BI_C_Digit,9.0,1.0,42.0,920.0,1.0,1.0,ABA
BI_C_Digit,9.0,1.0,43.0,866.0,1.0,3.0,ABA
BI_C_Digit,9.0,1.0,44.0,444.0,1.0,1.0,ABA
BI_C_Digit,9.0,1.0,45.0,464.0,1.0,2.0,CBA
BI_C_Digit,9.0,1.0,46.0,713.0,1.0,1.0,ABA
BI_C_Digit,9.0,1.0,47.0,537.0,1.0,2.0,ABA
BI_C_Digit,9.0,1.0,48.0,1328.0,1.0,3.0,CBA
BI_C_Digit,9.0,1.0,49.0,1219.0,1.0,2.0,ABA
BI_C_Digit,9.0,1.0,50.0,709.0,1.0,3.0,ABA
BI_C_Digit,9.0,1.0,51.0,475.0,0.0,1.0,CBA
BI_C_Digit,9.0,1.0,52.0,813.0,1.0,3.0,ABA
BI_C_Digit,9.0,1.0,53.0,662.0,1.0,2.0,CBA
BI_C_Digit,9.0,1.0,54.0,588.0,1.0,1.0,CBA
BI_C_Digit,9.0,1.0,55.0,948.0,1.0,2.0,ABA
BI_C_Digit,9.0,1.0,56.0,874.0,1.0,1.0,ABA
BI_C_Digit,9.0,1.0,57.0,1219.0,0.0,3.0,CBA
BI_C_Digit,9.0,1.0,58.0,566.0,1.0,1.0,ABA
BI_C_Digit,9.0,1.0,59.0,1540.0,1.0,2.0,CBA
BI_C_Digit,9.0,1.0,60.0,1413.0,1.0,3.0,CBA
BI_C_Digit,9.0,1.0,61.0,1472.0,1.0,1.0,CBA
BI_C_Digit,9.0,1.0,62.0,1911.0,1.0,3.0,ABA
BI_C_Digit,9.0,1.0,63.0,896.0,1.0,1.0,ABA
BI_C_Digit,9.0,1.0,64.0,1133.0,1.0,2.0,CBA
BI_C_Digit,9.0,1.0,65.0,1063.0,1.0,3.0,CBA
BI_C_Digit,9.0,1.0,66.0,1350.0,1.0,1.0,CBA
BI_C_Digit,9.0,1.0,67.0,1980.0,1.0,3.0,ABA
BI_C_Digit,9.0,1.0,68.0,970.0,1.0,2.0,CBA
BI_C_Digit,9.0,1.0,69.0,601.0,1.0,1.0,CBA
BI_C_Digit,9.0,1.0,70.0,1875.0,1.0,3.0,CBA
BI_C_Digit,9.0,1.0,71.0,2435.0,1.0,1.0,ABA
BI_C_Digit,9.0,1.0,72.0,667.0,1.0,2.0,CBA
BI_C_Digit,9.0,1.0,73.0,565.0,1.0,1.0,ABA
BI_C_Digit,9.0,1.0,74.0,1155.0,0.0,2.0,ABA
BI_C_Digit,9.0,1.0,75.0,1113.0,1.0,3.0,CBA
BI_C_Digit,9.0,1.0,76.0,812.0,1.0,1.0,CBA
BI_C_Digit,9.0,1.0,77.0,2214.0,1.0,2.0,CBA
BI_C_Digit,9.0,1.0,78.0,720.0,1.0,1.0,ABA
BI_C_Digit,9.0,1.0,79.0,1458.0,1.0,3.0,CBA
BI_C_Digit,9.0,1.0,80.0,1360.0,1.0,2.0,CBA
BI_C_Digit,9.0,1.0,81.0,791.0,1.0,3.0,ABA
BI_C_Digit,9.0,1.0,82.0,570.0,1.0,2.0,ABA
BI_C_Digit,9.0,1.0,83.0,673.0,1.0,3.0,ABA
BI_C_Digit,9.0,1.0,84.0,1366.0,1.0,2.0,ABA
BI_C_Digit,9.0,1.0,85.0,1811.0,1.0,1.0,CBA
BI_C_Digit,9.0,1.0,86.0,1077.0,1.0,2.0,ABA
BI_C_Digit,9.0,1.0,87.0,968.0,1.0,3.0,CBA
BI_C_Digit,9.0,1.0,88.0,769.0,1.0,1.0,CBA
BI_C_Digit,9.0,1.0,89.0,1900.0,1.0,3.0,ABA
BI_C_Digit,9.0,1.0,90.0,1027.0,1.0,1.0,ABA
BI_C_Digit,9.0,1.0,91.0,2303.0,1.0,3.0,ABA
BI_C_Digit,9.0,1.0,92.0,834.0,1.0,1.0,ABA
BI_C_Digit,9.0,1.0,93.0,831.0,1.0,2.0,CBA
BI_C_Digit,9.0,1.0,94.0,1080.0,1.0,1.0,ABA
BI_C_Digit,9.0,1.0,95.0,1459.0,1.0,2.0,ABA
BI_C_Digit,9.0,1.0,96.0,1786.0,1.0,3.0,CBA
BI_C_Digit,9.0,1.0,97.0,1546.0,1.0,2.0,ABA
BI_C_Digit,9.0,1.0,98.0,737.0,0.0,3.0,ABA
BI_C_Digit,9.0,1.0,99.0,1368.0,1.0,2.0,ABA
BI_C_Digit,9.0,1.0,100.0,795.0,1.0,3.0,ABA
BI_C_Digit,9.0,1.0,101.0,755.0,1.0,2.0,ABA
BI_C_Digit,9.0,1.0,102.0,583.0,1.0,1.0,CBA
BI_C_Digit,9.0,1.0,103.0,1828.0,1.0,3.0,CBA
BI_C_Digit,9.0,1.0,104.0,925.0,1.0,2.0,CBA
BI_C_Digit,9.0,1.0,105.0,945.0,1.0,1.0,CBA
BI_C_Digit,9.0,1.0,106.0,1252.0,1.0,3.0,CBA
BI_C_Digit,9.0,1.0,107.0,1068.0,1.0,2.0,CBA
BI_C_Digit,9.0,1.0,108.0,628.0,0.0,1.0,CBA
BI_C_Digit,9.0,1.0,109.0,584.0,1.0,2.0,ABA
BI_C_Digit,9.0,1.0,110.0,1346.0,1.0,3.0,CBA
BI_C_Digit,9.0,1.0,111.0,1051.0,1.0,2.0,ABA
BI_C_Digit,9.0,1.0,112.0,735.0,1.0,1.0,CBA
BI_C_Digit,9.0,1.0,113.0,2350.0,1.0,3.0,CBA
BI_C_Digit,9.0,1.0,114.0,1504.0,1.0,2.0,CBA
BI_C_Digit,9.0,1.0,115.0,734.0,0.0,1.0,CBA
BI_C_Digit,9.0,1.0,116.0,675.0,1.0,2.0,ABA
BI_C_Digit,9.0,1.0,117.0,972.0,1.0,3.0,CBA
BI_C_Digit,9.0,1.0,118.0,1453.0,1.0,2.0,ABA
BI_C_Digit,9.0,1.0,119.0,2208.0,1.0,3.0,ABA
BI_C_Digit,9.0,1.0,120.0,1205.0,1.0,2.0,ABA
BI_C_Digit,9.0,2.0,1.0,842.0,1.0,3.0,0.0
BI_C_Digit,9.0,2.0,2.0,403.0,1.0,2.0,0.0
BI_C_Digit,9.0,2.0,3.0,621.0,1.0,3.0,ABA
BI_C_Digit,9.0,2.0,4.0,467.0,1.0,2.0,ABA
BI_C_Digit,9.0,2.0,5.0,661.0,1.0,3.0,ABA
BI_C_Digit,9.0,2.0,6.0,883.0,1.0,1.0,CBA
BI_C_Digit,9.0,2.0,7.0,520.0,1.0,2.0,CBA
BI_C_Digit,9.0,2.0,8.0,420.0,1.0,1.0,ABA
BI_C_Digit,9.0,2.0,9.0,459.0,1.0,2.0,ABA
BI_C_Digit,9.0,2.0,10.0,415.0,1.0,1.0,ABA
BI_C_Digit,9.0,2.0,11.0,691.0,1.0,2.0,ABA
BI_C_Digit,9.0,2.0,12.0,1006.0,1.0,3.0,CBA
BI_C_Digit,9.0,2.0,13.0,865.0,1.0,2.0,ABA
BI_C_Digit,9.0,2.0,14.0,1058.0,1.0,3.0,ABA
BI_C_Digit,9.0,2.0,15.0,1031.0,1.0,1.0,CBA
BI_C_Digit,9.0,2.0,16.0,1000.0,1.0,3.0,ABA
BI_C_Digit,9.0,2.0,17.0,719.0,1.0,1.0,ABA
BI_C_Digit,9.0,2.0,18.0,907.0,1.0,3.0,ABA
BI_C_Digit,9.0,2.0,19.0,677.0,1.0,1.0,ABA
BI_C_Digit,9.0,2.0,20.0,832.0,1.0,3.0,ABA
BI_C_Digit,9.0,2.0,21.0,626.0,1.0,2.0,CBA
BI_C_Digit,9.0,2.0,22.0,638.0,1.0,1.0,CBA
BI_C_Digit,9.0,2.0,23.0,540.0,1.0,3.0,CBA
BI_C_Digit,9.0,2.0,24.0,465.0,1.0,2.0,CBA
BI_C_Digit,9.0,2.0,25.0,788.0,1.0,3.0,ABA
BI_C_Digit,9.0,2.0,26.0,834.0,1.0,1.0,CBA
BI_C_Digit,9.0,2.0,27.0,503.0,1.0,2.0,CBA
BI_C_Digit,9.0,2.0,28.0,532.0,1.0,1.0,ABA
BI_C_Digit,9.0,2.0,29.0,1445.0,1.0,3.0,CBA
BI_C_Digit,9.0,2.0,30.0,1163.0,1.0,1.0,ABA
BI_C_Digit,9.0,2.0,31.0,1567.0,1.0,2.0,CBA
BI_C_Digit,9.0,2.0,32.0,934.0,0.0,1.0,ABA
BI_C_Digit,9.0,2.0,33.0,874.0,1.0,2.0,ABA
BI_C_Digit,9.0,2.0,34.0,613.0,1.0,3.0,CBA
BI_C_Digit,9.0,2.0,35.0,507.0,1.0,2.0,ABA
BI_C_Digit,9.0,2.0,36.0,1555.0,1.0,1.0,CBA
BI_C_Digit,9.0,2.0,37.0,758.0,1.0,2.0,ABA
BI_C_Digit,9.0,2.0,38.0,2536.0,1.0,3.0,CBA
BI_C_Digit,9.0,2.0,39.0,731.0,1.0,1.0,CBA
BI_C_Digit,9.0,2.0,40.0,2242.0,1.0,2.0,CBA
BI_C_Digit,9.0,2.0,41.0,1351.0,1.0,3.0,CBA
BI_C_Digit,9.0,2.0,42.0,2496.0,1.0,1.0,CBA
BI_C_Digit,9.0,2.0,43.0,1430.0,1.0,3.0,ABA
BI_C_Digit,9.0,2.0,44.0,1750.0,1.0,1.0,ABA
BI_C_Digit,9.0,2.0,45.0,476.0,1.0,2.0,CBA
BI_C_Digit,9.0,2.0,46.0,666.0,0.0,1.0,ABA
BI_C_Digit,9.0,2.0,47.0,520.0,1.0,3.0,CBA
BI_C_Digit,9.0,2.0,48.0,595.0,1.0,2.0,CBA
BI_C_Digit,9.0,2.0,49.0,490.0,1.0,1.0,CBA
BI_C_Digit,9.0,2.0,50.0,822.0,1.0,3.0,CBA
BI_C_Digit,9.0,2.0,51.0,468.0,1.0,2.0,CBA
BI_C_Digit,9.0,2.0,52.0,1318.0,1.0,3.0,ABA
BI_C_Digit,9.0,2.0,53.0,562.0,1.0,1.0,CBA
BI_C_Digit,9.0,2.0,54.0,1190.0,1.0,2.0,CBA
BI_C_Digit,9.0,2.0,55.0,1607.0,1.0,3.0,CBA
BI_C_Digit,9.0,2.0,56.0,756.0,1.0,2.0,ABA
BI_C_Digit,9.0,2.0,57.0,483.0,1.0,1.0,CBA
BI_C_Digit,9.0,2.0,58.0,612.0,1.0,2.0,ABA
BI_C_Digit,9.0,2.0,59.0,882.0,0.0,3.0,CBA
BI_C_Digit,9.0,2.0,60.0,779.0,1.0,1.0,CBA
BI_C_Digit,9.0,2.0,61.0,860.0,1.0,2.0,CBA
BI_C_Digit,9.0,2.0,62.0,617.0,1.0,1.0,ABA
BI_C_Digit,9.0,2.0,63.0,2313.0,1.0,2.0,ABA
BI_C_Digit,9.0,2.0,64.0,831.0,1.0,3.0,CBA
BI_C_Digit,9.0,2.0,65.0,901.0,1.0,2.0,ABA
BI_C_Digit,9.0,2.0,66.0,640.0,1.0,3.0,ABA
BI_C_Digit,9.0,2.0,67.0,583.0,1.0,1.0,CBA
BI_C_Digit,9.0,2.0,68.0,1027.0,1.0,2.0,CBA
BI_C_Digit,9.0,2.0,69.0,2344.0,1.0,3.0,CBA
BI_C_Digit,9.0,2.0,70.0,952.0,1.0,1.0,CBA
BI_C_Digit,9.0,2.0,71.0,1131.0,1.0,2.0,CBA
BI_C_Digit,9.0,2.0,72.0,428.0,1.0,1.0,ABA
BI_C_Digit,9.0,2.0,73.0,743.0,1.0,2.0,ABA
BI_C_Digit,9.0,2.0,74.0,884.0,1.0,1.0,ABA
BI_C_Digit,9.0,2.0,75.0,819.0,1.0,3.0,CBA
BI_C_Digit,9.0,2.0,76.0,902.0,0.0,1.0,ABA
BI_C_Digit,9.0,2.0,77.0,594.0,1.0,2.0,CBA
BI_C_Digit,9.0,2.0,78.0,2525.0,1.0,3.0,CBA
BI_C_Digit,9.0,2.0,79.0,1166.0,1.0,2.0,ABA
BI_C_Digit,9.0,2.0,80.0,1759.0,1.0,1.0,CBA
BI_C_Digit,9.0,2.0,81.0,788.0,1.0,2.0,ABA
BI_C_Digit,9.0,2.0,82.0,1458.0,1.0,1.0,ABA
BI_C_Digit,9.0,2.0,83.0,1698.0,1.0,2.0,ABA
BI_C_Digit,9.0,2.0,84.0,557.0,1.0,3.0,CBA
BI_C_Digit,9.0,2.0,85.0,553.0,1.0,2.0,ABA
BI_C_Digit,9.0,2.0,86.0,1758.0,1.0,3.0,ABA
BI_C_Digit,9.0,2.0,87.0,1065.0,1.0,2.0,ABA
BI_C_Digit,9.0,2.0,88.0,1611.0,1.0,1.0,CBA
BI_C_Digit,9.0,2.0,89.0,950.0,1.0,2.0,ABA
BI_C_Digit,9.0,2.0,90.0,926.0,1.0,3.0,CBA
BI_C_Digit,9.0,2.0,91.0,718.0,1.0,1.0,CBA
BI_C_Digit,9.0,2.0,92.0,628.0,1.0,3.0,ABA
BI_C_Digit,9.0,2.0,93.0,755.0,1.0,1.0,ABA
BI_C_Digit,9.0,2.0,94.0,783.0,0.0,3.0,ABA
BI_C_Digit,9.0,2.0,95.0,486.0,1.0,2.0,CBA
BI_C_Digit,9.0,2.0,96.0,832.0,1.0,1.0,CBA
BI_C_Digit,9.0,2.0,97.0,387.0,1.0,2.0,ABA
BI_C_Digit,9.0,2.0,98.0,767.0,1.0,3.0,CBA
BI_C_Digit,9.0,2.0,99.0,783.0,1.0,2.0,ABA
BI_C_Digit,9.0,2.0,100.0,1057.0,0.0,3.0,ABA
BI_C_Digit,9.0,2.0,101.0,495.0,1.0,1.0,CBA
BI_C_Digit,9.0,2.0,102.0,390.0,1.0,2.0,CBA
BI_C_Digit,9.0,2.0,103.0,938.0,1.0,1.0,ABA
BI_C_Digit,9.0,2.0,104.0,1028.0,1.0,3.0,CBA
BI_C_Digit,9.0,2.0,105.0,1205.0,1.0,2.0,CBA
BI_C_Digit,9.0,2.0,106.0,724.0,1.0,1.0,CBA
BI_C_Digit,9.0,2.0,107.0,1520.0,1.0,3.0,CBA
BI_C_Digit,9.0,2.0,108.0,841.0,1.0,1.0,ABA
BI_C_Digit,9.0,2.0,109.0,887.0,1.0,3.0,ABA
BI_C_Digit,9.0,2.0,110.0,403.0,1.0,2.0,CBA
BI_C_Digit,9.0,2.0,111.0,1364.0,1.0,3.0,ABA
BI_C_Digit,9.0,2.0,112.0,578.0,1.0,1.0,CBA
BI_C_Digit,9.0,2.0,113.0,1434.0,1.0,3.0,ABA
BI_C_Digit,9.0,2.0,114.0,2341.0,0.0,1.0,ABA
BI_C_Digit,9.0,2.0,115.0,1424.0,1.0,3.0,ABA
BI_C_Digit,9.0,2.0,116.0,743.0,1.0,1.0,ABA
BI_C_Digit,9.0,2.0,117.0,921.0,1.0,3.0,ABA
BI_C_Digit,9.0,2.0,118.0,1170.0,1.0,1.0,ABA
BI_C_Digit,9.0,2.0,119.0,784.0,1.0,3.0,ABA
BI_C_Digit,9.0,2.0,120.0,644.0,1.0,2.0,CBA
BI_C_Digit,9.0,3.0,1.0,742.0,1.0,3.0,0.0
BI_C_Digit,9.0,3.0,2.0,774.0,1.0,2.0,0.0
BI_C_Digit,9.0,3.0,3.0,1165.0,0.0,3.0,ABA
BI_C_Digit,9.0,3.0,4.0,389.0,1.0,1.0,CBA
BI_C_Digit,9.0,3.0,5.0,1391.0,1.0,3.0,ABA
BI_C_Digit,9.0,3.0,6.0,834.0,1.0,2.0,CBA
BI_C_Digit,9.0,3.0,7.0,633.0,0.0,1.0,CBA
BI_C_Digit,9.0,3.0,8.0,740.0,1.0,3.0,CBA
BI_C_Digit,9.0,3.0,9.0,455.0,1.0,1.0,ABA
BI_C_Digit,9.0,3.0,10.0,1161.0,1.0,3.0,ABA
BI_C_Digit,9.0,3.0,11.0,1005.0,1.0,2.0,CBA
BI_C_Digit,9.0,3.0,12.0,636.0,1.0,1.0,CBA
BI_C_Digit,9.0,3.0,13.0,1443.0,1.0,3.0,CBA
BI_C_Digit,9.0,3.0,14.0,712.0,1.0,2.0,CBA
BI_C_Digit,9.0,3.0,15.0,902.0,1.0,3.0,ABA
BI_C_Digit,9.0,3.0,16.0,632.0,1.0,1.0,CBA
BI_C_Digit,9.0,3.0,17.0,857.0,1.0,3.0,ABA
BI_C_Digit,9.0,3.0,18.0,847.0,1.0,1.0,ABA
BI_C_Digit,9.0,3.0,19.0,1443.0,1.0,2.0,CBA
BI_C_Digit,9.0,3.0,20.0,706.0,1.0,3.0,CBA
BI_C_Digit,9.0,3.0,21.0,893.0,1.0,1.0,CBA
BI_C_Digit,9.0,3.0,22.0,1066.0,1.0,3.0,ABA
BI_C_Digit,9.0,3.0,23.0,1148.0,1.0,1.0,ABA
BI_C_Digit,9.0,3.0,24.0,2878.0,1.0,2.0,CBA
BI_C_Digit,9.0,3.0,25.0,933.0,1.0,1.0,ABA
BI_C_Digit,9.0,3.0,26.0,1313.0,1.0,2.0,ABA
BI_C_Digit,9.0,3.0,27.0,1051.0,1.0,3.0,CBA
BI_C_Digit,9.0,3.0,28.0,807.0,1.0,1.0,CBA
BI_C_Digit,9.0,3.0,29.0,1129.0,1.0,3.0,ABA
BI_C_Digit,9.0,3.0,30.0,1465.0,1.0,2.0,CBA
BI_C_Digit,9.0,3.0,31.0,618.0,1.0,1.0,CBA
BI_C_Digit,9.0,3.0,32.0,752.0,1.0,2.0,ABA
BI_C_Digit,9.0,3.0,33.0,968.0,1.0,3.0,CBA
BI_C_Digit,9.0,3.0,34.0,770.0,1.0,1.0,CBA
BI_C_Digit,9.0,3.0,35.0,454.0,1.0,3.0,ABA
BI_C_Digit,9.0,3.0,36.0,1043.0,1.0,2.0,CBA
BI_C_Digit,9.0,3.0,37.0,424.0,1.0,1.0,CBA
BI_C_Digit,9.0,3.0,38.0,585.0,1.0,2.0,ABA
BI_C_Digit,9.0,3.0,39.0,629.0,1.0,3.0,CBA
BI_C_Digit,9.0,3.0,40.0,1199.0,1.0,2.0,ABA
BI_C_Digit,9.0,3.0,41.0,1421.0,1.0,1.0,CBA
BI_C_Digit,9.0,3.0,42.0,3524.0,1.0,2.0,ABA
BI_C_Digit,9.0,3.0,43.0,973.0,1.0,1.0,ABA
BI_C_Digit,9.0,3.0,44.0,990.0,1.0,3.0,CBA
BI_C_Digit,9.0,3.0,45.0,607.0,1.0,2.0,CBA
BI_C_Digit,9.0,3.0,46.0,398.0,1.0,1.0,CBA
BI_C_Digit,9.0,3.0,47.0,415.0,1.0,2.0,ABA
BI_C_Digit,9.0,3.0,48.0,1751.0,1.0,3.0,CBA
BI_C_Digit,9.0,3.0,49.0,925.0,1.0,2.0,ABA
BI_C_Digit,9.0,3.0,50.0,601.0,1.0,3.0,ABA
BI_C_Digit,9.0,3.0,51.0,930.0,1.0,2.0,ABA
BI_C_Digit,9.0,3.0,52.0,446.0,1.0,1.0,CBA
BI_C_Digit,9.0,3.0,53.0,671.0,1.0,3.0,CBA
BI_C_Digit,9.0,3.0,54.0,1675.0,1.0,2.0,CBA
BI_C_Digit,9.0,3.0,55.0,1061.0,1.0,3.0,ABA
BI_C_Digit,9.0,3.0,56.0,1780.0,1.0,2.0,ABA
BI_C_Digit,9.0,3.0,57.0,838.0,1.0,3.0,ABA
BI_C_Digit,9.0,3.0,58.0,467.0,1.0,2.0,ABA
BI_C_Digit,9.0,3.0,59.0,698.0,1.0,3.0,ABA
BI_C_Digit,9.0,3.0,60.0,1026.0,1.0,2.0,ABA
BI_C_Digit,9.0,3.0,61.0,1402.0,1.0,3.0,ABA
BI_C_Digit,9.0,3.0,62.0,540.0,1.0,1.0,CBA
BI_C_Digit,9.0,3.0,63.0,674.0,1.0,3.0,ABA
BI_C_Digit,9.0,3.0,64.0,780.0,1.0,1.0,ABA
BI_C_Digit,9.0,3.0,65.0,890.0,1.0,2.0,CBA
BI_C_Digit,9.0,3.0,66.0,606.0,1.0,1.0,ABA
BI_C_Digit,9.0,3.0,67.0,1458.0,1.0,2.0,ABA
BI_C_Digit,9.0,3.0,68.0,541.0,1.0,3.0,CBA
BI_C_Digit,9.0,3.0,69.0,1519.0,1.0,1.0,CBA
BI_C_Digit,9.0,3.0,70.0,768.0,1.0,2.0,CBA
BI_C_Digit,9.0,3.0,71.0,866.0,0.0,3.0,CBA
BI_C_Digit,9.0,3.0,72.0,3775.0,1.0,2.0,ABA
BI_C_Digit,9.0,3.0,73.0,1596.0,1.0,3.0,ABA
BI_C_Digit,9.0,3.0,74.0,1262.0,1.0,1.0,CBA
BI_C_Digit,9.0,3.0,75.0,519.0,1.0,2.0,CBA
BI_C_Digit,9.0,3.0,76.0,525.0,1.0,1.0,ABA
BI_C_Digit,9.0,3.0,77.0,700.0,1.0,2.0,ABA
BI_C_Digit,9.0,3.0,78.0,763.0,0.0,3.0,CBA
BI_C_Digit,9.0,3.0,79.0,884.0,1.0,1.0,CBA
BI_C_Digit,9.0,3.0,80.0,1742.0,1.0,2.0,CBA
BI_C_Digit,9.0,3.0,81.0,447.0,1.0,1.0,ABA
BI_C_Digit,9.0,3.0,82.0,1491.0,1.0,3.0,CBA
BI_C_Digit,9.0,3.0,83.0,558.0,1.0,2.0,CBA
BI_C_Digit,9.0,3.0,84.0,525.0,0.0,1.0,CBA
BI_C_Digit,9.0,3.0,85.0,714.0,1.0,3.0,CBA
BI_C_Digit,9.0,3.0,86.0,703.0,1.0,1.0,ABA
BI_C_Digit,9.0,3.0,87.0,1786.0,1.0,3.0,ABA
BI_C_Digit,9.0,3.0,88.0,1039.0,1.0,1.0,ABA
BI_C_Digit,9.0,3.0,89.0,1797.0,1.0,3.0,ABA
BI_C_Digit,9.0,3.0,90.0,935.0,1.0,2.0,CBA
BI_C_Digit,9.0,3.0,91.0,1306.0,1.0,3.0,ABA
BI_C_Digit,9.0,3.0,92.0,1735.0,1.0,2.0,ABA
BI_C_Digit,9.0,3.0,93.0,438.0,1.0,1.0,CBA
BI_C_Digit,9.0,3.0,94.0,3400.0,1.0,3.0,CBA
BI_C_Digit,9.0,3.0,95.0,1408.0,1.0,2.0,CBA
BI_C_Digit,9.0,3.0,96.0,580.0,1.0,3.0,ABA
BI_C_Digit,9.0,3.0,97.0,521.0,1.0,1.0,CBA
BI_C_Digit,9.0,3.0,98.0,819.0,1.0,2.0,CBA
BI_C_Digit,9.0,3.0,99.0,1516.0,0.0,1.0,ABA
BI_C_Digit,9.0,3.0,100.0,1555.0,1.0,3.0,CBA
BI_C_Digit,9.0,3.0,101.0,805.0,1.0,1.0,ABA
BI_C_Digit,9.0,3.0,102.0,960.0,1.0,3.0,ABA
BI_C_Digit,9.0,3.0,103.0,914.0,1.0,2.0,CBA
BI_C_Digit,9.0,3.0,104.0,833.0,1.0,1.0,CBA
BI_C_Digit,9.0,3.0,105.0,2587.0,1.0,2.0,ABA
BI_C_Digit,9.0,3.0,106.0,397.0,1.0,1.0,ABA
BI_C_Digit,9.0,3.0,107.0,610.0,1.0,3.0,CBA
BI_C_Digit,9.0,3.0,108.0,774.0,1.0,1.0,ABA
BI_C_Digit,9.0,3.0,109.0,1217.0,1.0,3.0,ABA
BI_C_Digit,9.0,3.0,110.0,1984.0,1.0,2.0,CBA
BI_C_Digit,9.0,3.0,111.0,1076.0,1.0,1.0,CBA
BI_C_Digit,9.0,3.0,112.0,640.0,0.0,3.0,CBA
BI_C_Digit,9.0,3.0,113.0,1013.0,1.0,1.0,ABA
BI_C_Digit,9.0,3.0,114.0,1094.0,1.0,2.0,CBA
BI_C_Digit,9.0,3.0,115.0,2307.0,1.0,1.0,ABA
BI_C_Digit,9.0,3.0,116.0,573.0,1.0,2.0,ABA
BI_C_Digit,9.0,3.0,117.0,658.0,1.0,1.0,ABA
BI_C_Digit,9.0,3.0,118.0,1712.0,1.0,2.0,ABA
BI_C_Digit,9.0,3.0,119.0,714.0,1.0,1.0,ABA
BI_C_Digit,9.0,3.0,120.0,1312.0,1.0,2.0,ABA
BI_C_Digit,9.0,4.0,1.0,746.0,1.0,3.0,0.0
BI_C_Digit,9.0,4.0,2.0,563.0,1.0,2.0,0.0
BI_C_Digit,9.0,4.0,3.0,1235.0,1.0,3.0,ABA
BI_C_Digit,9.0,4.0,4.0,698.0,1.0,2.0,ABA
BI_C_Digit,9.0,4.0,5.0,969.0,1.0,3.0,ABA
BI_C_Digit,9.0,4.0,6.0,792.0,1.0,2.0,ABA
BI_C_Digit,9.0,4.0,7.0,542.0,1.0,3.0,ABA
BI_C_Digit,9.0,4.0,8.0,767.0,1.0,2.0,ABA
BI_C_Digit,9.0,4.0,9.0,445.0,1.0,1.0,CBA
BI_C_Digit,9.0,4.0,10.0,720.0,1.0,2.0,ABA
BI_C_Digit,9.0,4.0,11.0,943.0,0.0,1.0,ABA
BI_C_Digit,9.0,4.0,12.0,714.0,1.0,2.0,ABA
BI_C_Digit,9.0,4.0,13.0,766.0,1.0,1.0,ABA
BI_C_Digit,9.0,4.0,14.0,531.0,1.0,3.0,CBA
BI_C_Digit,9.0,4.0,15.0,882.0,1.0,1.0,ABA
BI_C_Digit,9.0,4.0,16.0,495.0,1.0,3.0,ABA
BI_C_Digit,9.0,4.0,17.0,637.0,1.0,2.0,CBA
BI_C_Digit,9.0,4.0,18.0,487.0,1.0,1.0,CBA
BI_C_Digit,9.0,4.0,19.0,644.0,1.0,3.0,CBA
BI_C_Digit,9.0,4.0,20.0,709.0,0.0,2.0,CBA
BI_C_Digit,9.0,4.0,21.0,1133.0,1.0,1.0,CBA
BI_C_Digit,9.0,4.0,22.0,521.0,1.0,3.0,CBA
BI_C_Digit,9.0,4.0,23.0,414.0,1.0,2.0,CBA
BI_C_Digit,9.0,4.0,24.0,770.0,0.0,3.0,ABA
BI_C_Digit,9.0,4.0,25.0,1368.0,1.0,2.0,ABA
BI_C_Digit,9.0,4.0,26.0,383.0,1.0,1.0,CBA
BI_C_Digit,9.0,4.0,27.0,503.0,1.0,3.0,CBA
BI_C_Digit,9.0,4.0,28.0,490.0,1.0,2.0,CBA
BI_C_Digit,9.0,4.0,29.0,1223.0,1.0,3.0,ABA
BI_C_Digit,9.0,4.0,30.0,713.0,1.0,1.0,CBA
BI_C_Digit,9.0,4.0,31.0,668.0,1.0,3.0,ABA
BI_C_Digit,9.0,4.0,32.0,858.0,1.0,1.0,ABA
BI_C_Digit,9.0,4.0,33.0,596.0,1.0,2.0,CBA
BI_C_Digit,9.0,4.0,34.0,495.0,1.0,3.0,CBA
BI_C_Digit,9.0,4.0,35.0,739.0,1.0,1.0,CBA
BI_C_Digit,9.0,4.0,36.0,1084.0,1.0,2.0,CBA
BI_C_Digit,9.0,4.0,37.0,1352.0,1.0,3.0,CBA
BI_C_Digit,9.0,4.0,38.0,1153.0,0.0,1.0,CBA
BI_C_Digit,9.0,4.0,39.0,757.0,1.0,2.0,CBA
BI_C_Digit,9.0,4.0,40.0,706.0,1.0,1.0,ABA
BI_C_Digit,9.0,4.0,41.0,1891.0,1.0,2.0,ABA
BI_C_Digit,9.0,4.0,42.0,1167.0,1.0,3.0,CBA
BI_C_Digit,9.0,4.0,43.0,584.0,1.0,1.0,CBA
BI_C_Digit,9.0,4.0,44.0,1232.0,1.0,2.0,CBA
BI_C_Digit,9.0,4.0,45.0,696.0,1.0,1.0,ABA
BI_C_Digit,9.0,4.0,46.0,1637.0,1.0,3.0,CBA
BI_C_Digit,9.0,4.0,47.0,1576.0,1.0,1.0,ABA
BI_C_Digit,9.0,4.0,48.0,2283.0,1.0,3.0,ABA
BI_C_Digit,9.0,4.0,49.0,436.0,1.0,1.0,ABA
BI_C_Digit,9.0,4.0,50.0,685.0,1.0,3.0,ABA
BI_C_Digit,9.0,4.0,51.0,675.0,1.0,2.0,CBA
BI_C_Digit,9.0,4.0,52.0,1048.0,1.0,1.0,CBA
BI_C_Digit,9.0,4.0,53.0,1887.0,1.0,2.0,ABA
BI_C_Digit,9.0,4.0,54.0,765.0,0.0,3.0,CBA
BI_C_Digit,9.0,4.0,55.0,377.0,1.0,2.0,ABA
BI_C_Digit,9.0,4.0,56.0,479.0,1.0,1.0,CBA
BI_C_Digit,9.0,4.0,57.0,730.0,1.0,2.0,ABA
BI_C_Digit,9.0,4.0,58.0,604.0,1.0,1.0,ABA
BI_C_Digit,9.0,4.0,59.0,838.0,1.0,2.0,ABA
BI_C_Digit,9.0,4.0,60.0,691.0,0.0,1.0,ABA
BI_C_Digit,9.0,4.0,61.0,809.0,1.0,2.0,ABA
BI_C_Digit,9.0,4.0,62.0,476.0,1.0,1.0,ABA
BI_C_Digit,9.0,4.0,63.0,1816.0,1.0,3.0,CBA
BI_C_Digit,9.0,4.0,64.0,1417.0,0.0,2.0,CBA
BI_C_Digit,9.0,4.0,65.0,1010.0,1.0,1.0,CBA
BI_C_Digit,9.0,4.0,66.0,654.0,1.0,2.0,ABA
BI_C_Digit,9.0,4.0,67.0,695.0,1.0,1.0,ABA
BI_C_Digit,9.0,4.0,68.0,1649.0,1.0,3.0,CBA
BI_C_Digit,9.0,4.0,69.0,443.0,1.0,2.0,CBA
BI_C_Digit,9.0,4.0,70.0,727.0,0.0,1.0,CBA
BI_C_Digit,9.0,4.0,71.0,564.0,0.0,3.0,CBA
BI_C_Digit,9.0,4.0,72.0,641.0,1.0,2.0,CBA
BI_C_Digit,9.0,4.0,73.0,752.0,1.0,1.0,CBA
BI_C_Digit,9.0,4.0,74.0,536.0,1.0,2.0,ABA
BI_C_Digit,9.0,4.0,75.0,1231.0,1.0,3.0,CBA
BI_C_Digit,9.0,4.0,76.0,828.0,0.0,2.0,ABA
BI_C_Digit,9.0,4.0,77.0,615.0,1.0,3.0,ABA
BI_C_Digit,9.0,4.0,78.0,924.0,0.0,2.0,ABA
BI_C_Digit,9.0,4.0,79.0,668.0,1.0,1.0,CBA
BI_C_Digit,9.0,4.0,80.0,393.0,1.0,2.0,ABA
BI_C_Digit,9.0,4.0,81.0,1065.0,1.0,3.0,CBA
BI_C_Digit,9.0,4.0,82.0,602.0,1.0,2.0,ABA
BI_C_Digit,9.0,4.0,83.0,471.0,0.0,1.0,CBA
BI_C_Digit,9.0,4.0,84.0,616.0,1.0,3.0,CBA
BI_C_Digit,9.0,4.0,85.0,1266.0,1.0,2.0,CBA
BI_C_Digit,9.0,4.0,86.0,423.0,1.0,1.0,CBA
BI_C_Digit,9.0,4.0,87.0,1019.0,0.0,2.0,ABA
BI_C_Digit,9.0,4.0,88.0,501.0,1.0,1.0,ABA
BI_C_Digit,9.0,4.0,89.0,1944.0,1.0,3.0,CBA
BI_C_Digit,9.0,4.0,90.0,1611.0,1.0,1.0,ABA
BI_C_Digit,9.0,4.0,91.0,431.0,0.0,2.0,CBA
BI_C_Digit,9.0,4.0,92.0,715.0,1.0,1.0,ABA
BI_C_Digit,9.0,4.0,93.0,458.0,1.0,3.0,CBA
BI_C_Digit,9.0,4.0,94.0,362.0,1.0,2.0,CBA
BI_C_Digit,9.0,4.0,95.0,1158.0,1.0,3.0,ABA
BI_C_Digit,9.0,4.0,96.0,539.0,1.0,1.0,CBA
BI_C_Digit,9.0,4.0,97.0,1101.0,1.0,3.0,ABA
BI_C_Digit,9.0,4.0,98.0,1434.0,1.0,1.0,ABA
BI_C_Digit,9.0,4.0,99.0,1455.0,1.0,3.0,ABA
BI_C_Digit,9.0,4.0,100.0,634.0,1.0,1.0,ABA
BI_C_Digit,9.0,4.0,101.0,1508.0,0.0,2.0,CBA
BI_C_Digit,9.0,4.0,102.0,552.0,1.0,3.0,CBA
BI_C_Digit,9.0,4.0,103.0,813.0,1.0,1.0,CBA
BI_C_Digit,9.0,4.0,104.0,754.0,1.0,3.0,ABA
BI_C_Digit,9.0,4.0,105.0,498.0,1.0,2.0,CBA
BI_C_Digit,9.0,4.0,106.0,1802.0,1.0,3.0,ABA
BI_C_Digit,9.0,4.0,107.0,502.0,1.0,2.0,ABA
BI_C_Digit,9.0,4.0,108.0,423.0,1.0,1.0,CBA
BI_C_Digit,9.0,4.0,109.0,874.0,1.0,3.0,CBA
BI_C_Digit,9.0,4.0,110.0,455.0,1.0,1.0,ABA
BI_C_Digit,9.0,4.0,111.0,601.0,1.0,3.0,ABA
BI_C_Digit,9.0,4.0,112.0,787.0,1.0,1.0,ABA
BI_C_Digit,9.0,4.0,113.0,3655.0,1.0,3.0,ABA
BI_C_Digit,9.0,4.0,114.0,560.0,1.0,2.0,CBA
BI_C_Digit,9.0,4.0,115.0,790.0,1.0,1.0,CBA
BI_C_Digit,9.0,4.0,116.0,2569.0,1.0,3.0,CBA
BI_C_Digit,9.0,4.0,117.0,875.0,1.0,1.0,ABA
BI_C_Digit,9.0,4.0,118.0,686.0,1.0,3.0,ABA
BI_C_Digit,9.0,4.0,119.0,728.0,1.0,2.0,CBA
BI_C_Digit,9.0,4.0,120.0,656.0,1.0,3.0,ABA
BI_C_Digit,10.0,1.0,1.0,851.0,1.0,3.0,0.0
BI_C_Digit,10.0,1.0,2.0,896.0,1.0,2.0,0.0
BI_C_Digit,10.0,1.0,3.0,755.0,1.0,3.0,ABA
BI_C_Digit,10.0,1.0,4.0,798.0,1.0,2.0,ABA
BI_C_Digit,10.0,1.0,5.0,1102.0,1.0,3.0,ABA
BI_C_Digit,10.0,1.0,6.0,911.0,1.0,1.0,CBA
BI_C_Digit,10.0,1.0,7.0,921.0,1.0,2.0,CBA
BI_C_Digit,10.0,1.0,8.0,1054.0,1.0,1.0,ABA
BI_C_Digit,10.0,1.0,9.0,1039.0,0.0,2.0,ABA
BI_C_Digit,10.0,1.0,10.0,824.0,1.0,1.0,ABA
BI_C_Digit,10.0,1.0,11.0,1079.0,1.0,2.0,ABA
BI_C_Digit,10.0,1.0,12.0,1609.0,1.0,3.0,CBA
BI_C_Digit,10.0,1.0,13.0,1438.0,1.0,2.0,ABA
BI_C_Digit,10.0,1.0,14.0,1437.0,0.0,3.0,ABA
BI_C_Digit,10.0,1.0,15.0,1037.0,1.0,1.0,CBA
BI_C_Digit,10.0,1.0,16.0,1092.0,1.0,3.0,ABA
BI_C_Digit,10.0,1.0,17.0,1361.0,1.0,1.0,ABA
BI_C_Digit,10.0,1.0,18.0,1260.0,1.0,3.0,ABA
BI_C_Digit,10.0,1.0,19.0,1616.0,0.0,1.0,ABA
BI_C_Digit,10.0,1.0,20.0,967.0,1.0,3.0,ABA
BI_C_Digit,10.0,1.0,21.0,911.0,1.0,2.0,CBA
BI_C_Digit,10.0,1.0,22.0,1141.0,1.0,1.0,CBA
BI_C_Digit,10.0,1.0,23.0,942.0,1.0,3.0,CBA
BI_C_Digit,10.0,1.0,24.0,888.0,1.0,2.0,CBA
BI_C_Digit,10.0,1.0,25.0,1395.0,0.0,3.0,ABA
BI_C_Digit,10.0,1.0,26.0,1144.0,1.0,1.0,CBA
BI_C_Digit,10.0,1.0,27.0,902.0,1.0,2.0,CBA
BI_C_Digit,10.0,1.0,28.0,987.0,1.0,1.0,ABA
BI_C_Digit,10.0,1.0,29.0,681.0,1.0,3.0,CBA
BI_C_Digit,10.0,1.0,30.0,1092.0,0.0,1.0,ABA
BI_C_Digit,10.0,1.0,31.0,2274.0,1.0,2.0,CBA
BI_C_Digit,10.0,1.0,32.0,943.0,1.0,1.0,ABA
BI_C_Digit,10.0,1.0,33.0,943.0,1.0,2.0,ABA
BI_C_Digit,10.0,1.0,34.0,1122.0,1.0,3.0,CBA
BI_C_Digit,10.0,1.0,35.0,1867.0,1.0,2.0,ABA
BI_C_Digit,10.0,1.0,36.0,1373.0,1.0,1.0,CBA
BI_C_Digit,10.0,1.0,37.0,512.0,1.0,2.0,ABA
BI_C_Digit,10.0,1.0,38.0,1390.0,0.0,3.0,CBA
BI_C_Digit,10.0,1.0,39.0,522.0,1.0,1.0,CBA
BI_C_Digit,10.0,1.0,40.0,2065.0,1.0,2.0,CBA
BI_C_Digit,10.0,1.0,41.0,676.0,1.0,3.0,CBA
BI_C_Digit,10.0,1.0,42.0,973.0,1.0,1.0,CBA
BI_C_Digit,10.0,1.0,43.0,765.0,1.0,3.0,ABA
BI_C_Digit,10.0,1.0,44.0,598.0,1.0,1.0,ABA
BI_C_Digit,10.0,1.0,45.0,368.0,1.0,2.0,CBA
BI_C_Digit,10.0,1.0,46.0,1409.0,1.0,1.0,ABA
BI_C_Digit,10.0,1.0,47.0,718.0,1.0,3.0,CBA
BI_C_Digit,10.0,1.0,48.0,810.0,1.0,2.0,CBA
BI_C_Digit,10.0,1.0,49.0,1071.0,1.0,1.0,CBA
BI_C_Digit,10.0,1.0,50.0,875.0,1.0,3.0,CBA
BI_C_Digit,10.0,1.0,51.0,626.0,1.0,2.0,CBA
BI_C_Digit,10.0,1.0,52.0,491.0,1.0,3.0,ABA
BI_C_Digit,10.0,1.0,53.0,758.0,1.0,1.0,CBA
BI_C_Digit,10.0,1.0,54.0,646.0,1.0,2.0,CBA
BI_C_Digit,10.0,1.0,55.0,540.0,1.0,3.0,CBA
BI_C_Digit,10.0,1.0,56.0,840.0,1.0,2.0,ABA
BI_C_Digit,10.0,1.0,57.0,803.0,1.0,1.0,CBA
BI_C_Digit,10.0,1.0,58.0,1135.0,1.0,2.0,ABA
BI_C_Digit,10.0,1.0,59.0,685.0,1.0,3.0,CBA
BI_C_Digit,10.0,1.0,60.0,456.0,1.0,1.0,CBA
BI_C_Digit,10.0,1.0,61.0,462.0,1.0,2.0,CBA
BI_C_Digit,10.0,1.0,62.0,1349.0,1.0,1.0,ABA
BI_C_Digit,10.0,1.0,63.0,438.0,1.0,2.0,ABA
BI_C_Digit,10.0,1.0,64.0,450.0,1.0,3.0,CBA
BI_C_Digit,10.0,1.0,65.0,586.0,1.0,2.0,ABA
BI_C_Digit,10.0,1.0,66.0,781.0,1.0,3.0,ABA
BI_C_Digit,10.0,1.0,67.0,708.0,1.0,1.0,CBA
BI_C_Digit,10.0,1.0,68.0,764.0,1.0,2.0,CBA
BI_C_Digit,10.0,1.0,69.0,692.0,1.0,3.0,CBA
BI_C_Digit,10.0,1.0,70.0,807.0,1.0,1.0,CBA
BI_C_Digit,10.0,1.0,71.0,391.0,1.0,2.0,CBA
BI_C_Digit,10.0,1.0,72.0,496.0,1.0,1.0,ABA
BI_C_Digit,10.0,1.0,73.0,525.0,1.0,2.0,ABA
BI_C_Digit,10.0,1.0,74.0,961.0,1.0,1.0,ABA
BI_C_Digit,10.0,1.0,75.0,560.0,1.0,3.0,CBA
BI_C_Digit,10.0,1.0,76.0,733.0,0.0,1.0,ABA
BI_C_Digit,10.0,1.0,77.0,530.0,1.0,2.0,CBA
BI_C_Digit,10.0,1.0,78.0,1066.0,0.0,3.0,CBA
BI_C_Digit,10.0,1.0,79.0,830.0,1.0,2.0,ABA
BI_C_Digit,10.0,1.0,80.0,490.0,1.0,1.0,CBA
BI_C_Digit,10.0,1.0,81.0,382.0,1.0,2.0,ABA
BI_C_Digit,10.0,1.0,82.0,623.0,1.0,1.0,ABA
BI_C_Digit,10.0,1.0,83.0,430.0,1.0,2.0,ABA
BI_C_Digit,10.0,1.0,84.0,641.0,1.0,3.0,CBA
BI_C_Digit,10.0,1.0,85.0,568.0,1.0,2.0,ABA
BI_C_Digit,10.0,1.0,86.0,518.0,1.0,3.0,ABA
BI_C_Digit,10.0,1.0,87.0,547.0,1.0,2.0,ABA
BI_C_Digit,10.0,1.0,88.0,1022.0,0.0,1.0,CBA
BI_C_Digit,10.0,1.0,89.0,493.0,1.0,2.0,ABA
BI_C_Digit,10.0,1.0,90.0,588.0,0.0,3.0,CBA
BI_C_Digit,10.0,1.0,91.0,710.0,1.0,1.0,CBA
BI_C_Digit,10.0,1.0,92.0,574.0,1.0,3.0,ABA
BI_C_Digit,10.0,1.0,93.0,969.0,1.0,1.0,ABA
BI_C_Digit,10.0,1.0,94.0,517.0,1.0,3.0,ABA
BI_C_Digit,10.0,1.0,95.0,450.0,1.0,2.0,CBA
BI_C_Digit,10.0,1.0,96.0,1185.0,1.0,1.0,CBA
BI_C_Digit,10.0,1.0,97.0,1039.0,1.0,2.0,ABA
BI_C_Digit,10.0,1.0,98.0,489.0,1.0,3.0,CBA
BI_C_Digit,10.0,1.0,99.0,787.0,1.0,2.0,ABA
BI_C_Digit,10.0,1.0,100.0,478.0,1.0,3.0,ABA
BI_C_Digit,10.0,1.0,101.0,640.0,1.0,1.0,CBA
BI_C_Digit,10.0,1.0,102.0,688.0,1.0,2.0,CBA
BI_C_Digit,10.0,1.0,103.0,553.0,0.0,1.0,ABA
BI_C_Digit,10.0,1.0,104.0,570.0,1.0,3.0,CBA
BI_C_Digit,10.0,1.0,105.0,718.0,1.0,2.0,CBA
BI_C_Digit,10.0,1.0,106.0,524.0,1.0,1.0,CBA
BI_C_Digit,10.0,1.0,107.0,1204.0,0.0,3.0,CBA
BI_C_Digit,10.0,1.0,108.0,678.0,1.0,1.0,ABA
BI_C_Digit,10.0,1.0,109.0,763.0,1.0,3.0,ABA
BI_C_Digit,10.0,1.0,110.0,799.0,1.0,2.0,CBA
BI_C_Digit,10.0,1.0,111.0,556.0,0.0,3.0,ABA
BI_C_Digit,10.0,1.0,112.0,1378.0,1.0,1.0,CBA
BI_C_Digit,10.0,1.0,113.0,554.0,1.0,3.0,ABA
BI_C_Digit,10.0,1.0,114.0,1337.0,1.0,1.0,ABA
BI_C_Digit,10.0,1.0,115.0,726.0,1.0,3.0,ABA
BI_C_Digit,10.0,1.0,116.0,1143.0,1.0,1.0,ABA
BI_C_Digit,10.0,1.0,117.0,560.0,1.0,3.0,ABA
BI_C_Digit,10.0,1.0,118.0,1097.0,0.0,1.0,ABA
BI_C_Digit,10.0,1.0,119.0,1099.0,1.0,3.0,ABA
BI_C_Digit,10.0,1.0,120.0,591.0,1.0,2.0,CBA
BI_C_Digit,10.0,2.0,1.0,615.0,1.0,3.0,0.0
BI_C_Digit,10.0,2.0,2.0,612.0,1.0,2.0,0.0
BI_C_Digit,10.0,2.0,3.0,570.0,1.0,3.0,ABA
BI_C_Digit,10.0,2.0,4.0,534.0,1.0,1.0,CBA
BI_C_Digit,10.0,2.0,5.0,880.0,1.0,3.0,ABA
BI_C_Digit,10.0,2.0,6.0,555.0,1.0,2.0,CBA
BI_C_Digit,10.0,2.0,7.0,556.0,1.0,1.0,CBA
BI_C_Digit,10.0,2.0,8.0,957.0,1.0,3.0,CBA
BI_C_Digit,10.0,2.0,9.0,776.0,1.0,1.0,ABA
BI_C_Digit,10.0,2.0,10.0,607.0,1.0,3.0,ABA
BI_C_Digit,10.0,2.0,11.0,468.0,1.0,2.0,CBA
BI_C_Digit,10.0,2.0,12.0,472.0,1.0,1.0,CBA
BI_C_Digit,10.0,2.0,13.0,549.0,1.0,3.0,CBA
BI_C_Digit,10.0,2.0,14.0,703.0,1.0,2.0,CBA
BI_C_Digit,10.0,2.0,15.0,511.0,1.0,3.0,ABA
BI_C_Digit,10.0,2.0,16.0,425.0,1.0,1.0,CBA
BI_C_Digit,10.0,2.0,17.0,1155.0,1.0,3.0,ABA
BI_C_Digit,10.0,2.0,18.0,940.0,0.0,1.0,ABA
BI_C_Digit,10.0,2.0,19.0,614.0,1.0,2.0,CBA
BI_C_Digit,10.0,2.0,20.0,494.0,1.0,3.0,CBA
BI_C_Digit,10.0,2.0,21.0,486.0,0.0,1.0,CBA
BI_C_Digit,10.0,2.0,22.0,1239.0,0.0,3.0,ABA
BI_C_Digit,10.0,2.0,23.0,595.0,1.0,1.0,ABA
BI_C_Digit,10.0,2.0,24.0,519.0,1.0,2.0,CBA
BI_C_Digit,10.0,2.0,25.0,426.0,1.0,1.0,ABA
BI_C_Digit,10.0,2.0,26.0,475.0,1.0,2.0,ABA
BI_C_Digit,10.0,2.0,27.0,707.0,1.0,3.0,CBA
BI_C_Digit,10.0,2.0,28.0,1022.0,0.0,1.0,CBA
BI_C_Digit,10.0,2.0,29.0,516.0,1.0,3.0,ABA
BI_C_Digit,10.0,2.0,30.0,507.0,1.0,2.0,CBA
BI_C_Digit,10.0,2.0,31.0,601.0,1.0,1.0,CBA
BI_C_Digit,10.0,2.0,32.0,428.0,1.0,2.0,ABA
BI_C_Digit,10.0,2.0,33.0,463.0,1.0,3.0,CBA
BI_C_Digit,10.0,2.0,34.0,919.0,0.0,1.0,CBA
BI_C_Digit,10.0,2.0,35.0,517.0,1.0,3.0,ABA
BI_C_Digit,10.0,2.0,36.0,880.0,1.0,2.0,CBA
BI_C_Digit,10.0,2.0,37.0,637.0,1.0,1.0,CBA
BI_C_Digit,10.0,2.0,38.0,426.0,1.0,2.0,ABA
BI_C_Digit,10.0,2.0,39.0,396.0,1.0,3.0,CBA
BI_C_Digit,10.0,2.0,40.0,537.0,1.0,2.0,ABA
BI_C_Digit,10.0,2.0,41.0,364.0,1.0,1.0,CBA
BI_C_Digit,10.0,2.0,42.0,805.0,1.0,2.0,ABA
BI_C_Digit,10.0,2.0,43.0,669.0,1.0,1.0,ABA
BI_C_Digit,10.0,2.0,44.0,566.0,1.0,3.0,CBA
BI_C_Digit,10.0,2.0,45.0,481.0,1.0,2.0,CBA
BI_C_Digit,10.0,2.0,46.0,503.0,0.0,1.0,CBA
BI_C_Digit,10.0,2.0,47.0,546.0,1.0,2.0,ABA
BI_C_Digit,10.0,2.0,48.0,450.0,1.0,3.0,CBA
BI_C_Digit,10.0,2.0,49.0,946.0,1.0,2.0,ABA
BI_C_Digit,10.0,2.0,50.0,740.0,1.0,3.0,ABA
BI_C_Digit,10.0,2.0,51.0,605.0,1.0,2.0,ABA
BI_C_Digit,10.0,2.0,52.0,460.0,0.0,1.0,CBA
BI_C_Digit,10.0,2.0,53.0,404.0,0.0,3.0,CBA
BI_C_Digit,10.0,2.0,54.0,399.0,1.0,2.0,CBA
BI_C_Digit,10.0,2.0,55.0,649.0,1.0,3.0,ABA
BI_C_Digit,10.0,2.0,56.0,425.0,1.0,2.0,ABA
BI_C_Digit,10.0,2.0,57.0,572.0,1.0,3.0,ABA
BI_C_Digit,10.0,2.0,58.0,708.0,1.0,2.0,ABA
BI_C_Digit,10.0,2.0,59.0,482.0,1.0,3.0,ABA
BI_C_Digit,10.0,2.0,60.0,453.0,1.0,2.0,ABA
BI_C_Digit,10.0,2.0,61.0,730.0,1.0,3.0,ABA
BI_C_Digit,10.0,2.0,62.0,967.0,1.0,1.0,CBA
BI_C_Digit,10.0,2.0,63.0,597.0,1.0,3.0,ABA
BI_C_Digit,10.0,2.0,64.0,419.0,1.0,1.0,ABA
BI_C_Digit,10.0,2.0,65.0,458.0,1.0,2.0,CBA
BI_C_Digit,10.0,2.0,66.0,461.0,1.0,1.0,ABA
BI_C_Digit,10.0,2.0,67.0,363.0,1.0,2.0,ABA
BI_C_Digit,10.0,2.0,68.0,658.0,1.0,3.0,CBA
BI_C_Digit,10.0,2.0,69.0,1093.0,1.0,1.0,CBA
BI_C_Digit,10.0,2.0,70.0,477.0,1.0,2.0,CBA
BI_C_Digit,10.0,2.0,71.0,777.0,1.0,3.0,CBA
BI_C_Digit,10.0,2.0,72.0,440.0,1.0,2.0,ABA
BI_C_Digit,10.0,2.0,73.0,1153.0,1.0,3.0,ABA
BI_C_Digit,10.0,2.0,74.0,942.0,0.0,1.0,CBA
BI_C_Digit,10.0,2.0,75.0,592.0,1.0,2.0,CBA
BI_C_Digit,10.0,2.0,76.0,1724.0,1.0,1.0,ABA
BI_C_Digit,10.0,2.0,77.0,401.0,1.0,2.0,ABA
BI_C_Digit,10.0,2.0,78.0,1170.0,0.0,3.0,CBA
BI_C_Digit,10.0,2.0,79.0,689.0,1.0,1.0,CBA
BI_C_Digit,10.0,2.0,80.0,408.0,1.0,2.0,CBA
BI_C_Digit,10.0,2.0,81.0,488.0,1.0,1.0,ABA
BI_C_Digit,10.0,2.0,82.0,464.0,1.0,3.0,CBA
BI_C_Digit,10.0,2.0,83.0,993.0,1.0,2.0,CBA
BI_C_Digit,10.0,2.0,84.0,500.0,1.0,1.0,CBA
BI_C_Digit,10.0,2.0,85.0,664.0,1.0,3.0,CBA
BI_C_Digit,10.0,2.0,86.0,655.0,1.0,1.0,ABA
BI_C_Digit,10.0,2.0,87.0,485.0,1.0,3.0,ABA
BI_C_Digit,10.0,2.0,88.0,1019.0,1.0,1.0,ABA
BI_C_Digit,10.0,2.0,89.0,495.0,1.0,3.0,ABA
BI_C_Digit,10.0,2.0,90.0,530.0,1.0,2.0,CBA
BI_C_Digit,10.0,2.0,91.0,806.0,0.0,3.0,ABA
BI_C_Digit,10.0,2.0,92.0,1014.0,1.0,2.0,ABA
BI_C_Digit,10.0,2.0,93.0,431.0,1.0,1.0,CBA
BI_C_Digit,10.0,2.0,94.0,1455.0,1.0,3.0,CBA
BI_C_Digit,10.0,2.0,95.0,1120.0,1.0,2.0,CBA
BI_C_Digit,10.0,2.0,96.0,1092.0,1.0,3.0,ABA
BI_C_Digit,10.0,2.0,97.0,1122.0,1.0,1.0,CBA
BI_C_Digit,10.0,2.0,98.0,458.0,1.0,2.0,CBA
BI_C_Digit,10.0,2.0,99.0,452.0,1.0,1.0,ABA
BI_C_Digit,10.0,2.0,100.0,519.0,1.0,3.0,CBA
BI_C_Digit,10.0,2.0,101.0,624.0,1.0,1.0,ABA
BI_C_Digit,10.0,2.0,102.0,521.0,1.0,3.0,ABA
BI_C_Digit,10.0,2.0,103.0,375.0,1.0,2.0,CBA
BI_C_Digit,10.0,2.0,104.0,643.0,1.0,1.0,CBA
BI_C_Digit,10.0,2.0,105.0,335.0,1.0,2.0,ABA
BI_C_Digit,10.0,2.0,106.0,395.0,1.0,1.0,ABA
BI_C_Digit,10.0,2.0,107.0,432.0,1.0,3.0,CBA
BI_C_Digit,10.0,2.0,108.0,555.0,1.0,1.0,ABA
BI_C_Digit,10.0,2.0,109.0,1385.0,1.0,3.0,ABA
BI_C_Digit,10.0,2.0,110.0,794.0,1.0,2.0,CBA
BI_C_Digit,10.0,2.0,111.0,472.0,1.0,1.0,CBA
BI_C_Digit,10.0,2.0,112.0,504.0,0.0,3.0,CBA
BI_C_Digit,10.0,2.0,113.0,940.0,1.0,1.0,ABA
BI_C_Digit,10.0,2.0,114.0,805.0,1.0,2.0,CBA
BI_C_Digit,10.0,2.0,115.0,932.0,1.0,1.0,ABA
BI_C_Digit,10.0,2.0,116.0,563.0,1.0,2.0,ABA
BI_C_Digit,10.0,2.0,117.0,1204.0,1.0,1.0,ABA
BI_C_Digit,10.0,2.0,118.0,396.0,0.0,2.0,ABA
BI_C_Digit,10.0,2.0,119.0,393.0,1.0,1.0,ABA
BI_C_Digit,10.0,2.0,120.0,1437.0,1.0,2.0,ABA
BI_C_Digit,10.0,3.0,1.0,751.0,1.0,3.0,0.0
BI_C_Digit,10.0,3.0,2.0,600.0,1.0,2.0,0.0
BI_C_Digit,10.0,3.0,3.0,461.0,1.0,3.0,ABA
BI_C_Digit,10.0,3.0,4.0,337.0,1.0,2.0,ABA
BI_C_Digit,10.0,3.0,5.0,431.0,1.0,3.0,ABA
BI_C_Digit,10.0,3.0,6.0,446.0,1.0,2.0,ABA
BI_C_Digit,10.0,3.0,7.0,385.0,1.0,3.0,ABA
BI_C_Digit,10.0,3.0,8.0,574.0,1.0,2.0,ABA
BI_C_Digit,10.0,3.0,9.0,613.0,1.0,1.0,CBA
BI_C_Digit,10.0,3.0,10.0,479.0,1.0,2.0,ABA
BI_C_Digit,10.0,3.0,11.0,578.0,1.0,1.0,ABA
BI_C_Digit,10.0,3.0,12.0,474.0,1.0,2.0,ABA
BI_C_Digit,10.0,3.0,13.0,390.0,0.0,1.0,ABA
BI_C_Digit,10.0,3.0,14.0,793.0,0.0,3.0,CBA
BI_C_Digit,10.0,3.0,15.0,1187.0,1.0,1.0,ABA
BI_C_Digit,10.0,3.0,16.0,819.0,1.0,3.0,ABA
BI_C_Digit,10.0,3.0,17.0,450.0,1.0,2.0,CBA
BI_C_Digit,10.0,3.0,18.0,1174.0,1.0,1.0,CBA
BI_C_Digit,10.0,3.0,19.0,429.0,1.0,3.0,CBA
BI_C_Digit,10.0,3.0,20.0,716.0,1.0,2.0,CBA
BI_C_Digit,10.0,3.0,21.0,411.0,1.0,1.0,CBA
BI_C_Digit,10.0,3.0,22.0,478.0,1.0,3.0,CBA
BI_C_Digit,10.0,3.0,23.0,1010.0,1.0,2.0,CBA
BI_C_Digit,10.0,3.0,24.0,623.0,1.0,3.0,ABA
BI_C_Digit,10.0,3.0,25.0,596.0,0.0,2.0,ABA
BI_C_Digit,10.0,3.0,26.0,455.0,1.0,1.0,CBA
BI_C_Digit,10.0,3.0,27.0,563.0,1.0,3.0,CBA
BI_C_Digit,10.0,3.0,28.0,541.0,1.0,2.0,CBA
BI_C_Digit,10.0,3.0,29.0,691.0,1.0,3.0,ABA
BI_C_Digit,10.0,3.0,30.0,455.0,1.0,1.0,CBA
BI_C_Digit,10.0,3.0,31.0,919.0,0.0,3.0,ABA
BI_C_Digit,10.0,3.0,32.0,760.0,1.0,1.0,ABA
BI_C_Digit,10.0,3.0,33.0,523.0,1.0,2.0,CBA
BI_C_Digit,10.0,3.0,34.0,499.0,1.0,3.0,CBA
BI_C_Digit,10.0,3.0,35.0,735.0,0.0,1.0,CBA
BI_C_Digit,10.0,3.0,36.0,1246.0,1.0,2.0,CBA
BI_C_Digit,10.0,3.0,37.0,1211.0,1.0,3.0,CBA
BI_C_Digit,10.0,3.0,38.0,656.0,1.0,1.0,CBA
BI_C_Digit,10.0,3.0,39.0,467.0,1.0,2.0,CBA
BI_C_Digit,10.0,3.0,40.0,1092.0,0.0,1.0,ABA
BI_C_Digit,10.0,3.0,41.0,508.0,1.0,2.0,ABA
BI_C_Digit,10.0,3.0,42.0,547.0,1.0,3.0,CBA
BI_C_Digit,10.0,3.0,43.0,935.0,1.0,1.0,CBA
BI_C_Digit,10.0,3.0,44.0,466.0,1.0,2.0,CBA
BI_C_Digit,10.0,3.0,45.0,763.0,1.0,1.0,ABA
BI_C_Digit,10.0,3.0,46.0,480.0,0.0,3.0,CBA
BI_C_Digit,10.0,3.0,47.0,536.0,1.0,1.0,ABA
BI_C_Digit,10.0,3.0,48.0,458.0,1.0,3.0,ABA
BI_C_Digit,10.0,3.0,49.0,511.0,1.0,1.0,ABA
BI_C_Digit,10.0,3.0,50.0,474.0,1.0,3.0,ABA
BI_C_Digit,10.0,3.0,51.0,1068.0,1.0,2.0,CBA
BI_C_Digit,10.0,3.0,52.0,614.0,1.0,1.0,CBA
BI_C_Digit,10.0,3.0,53.0,396.0,1.0,2.0,ABA
BI_C_Digit,10.0,3.0,54.0,1610.0,0.0,3.0,CBA
BI_C_Digit,10.0,3.0,55.0,531.0,1.0,2.0,ABA
BI_C_Digit,10.0,3.0,56.0,867.0,1.0,1.0,CBA
BI_C_Digit,10.0,3.0,57.0,688.0,1.0,2.0,ABA
BI_C_Digit,10.0,3.0,58.0,784.0,1.0,1.0,ABA
BI_C_Digit,10.0,3.0,59.0,524.0,1.0,2.0,ABA
BI_C_Digit,10.0,3.0,60.0,1146.0,1.0,1.0,ABA
BI_C_Digit,10.0,3.0,61.0,523.0,1.0,2.0,ABA
BI_C_Digit,10.0,3.0,62.0,1010.0,1.0,1.0,ABA
BI_C_Digit,10.0,3.0,63.0,564.0,1.0,3.0,CBA
BI_C_Digit,10.0,3.0,64.0,880.0,1.0,2.0,CBA
BI_C_Digit,10.0,3.0,65.0,513.0,1.0,1.0,CBA
BI_C_Digit,10.0,3.0,66.0,1219.0,1.0,2.0,ABA
BI_C_Digit,10.0,3.0,67.0,695.0,0.0,1.0,ABA
BI_C_Digit,10.0,3.0,68.0,491.0,1.0,3.0,CBA
BI_C_Digit,10.0,3.0,69.0,873.0,1.0,2.0,CBA
BI_C_Digit,10.0,3.0,70.0,1157.0,1.0,1.0,CBA
BI_C_Digit,10.0,3.0,71.0,439.0,1.0,3.0,CBA
BI_C_Digit,10.0,3.0,72.0,463.0,1.0,2.0,CBA
BI_C_Digit,10.0,3.0,73.0,442.0,1.0,1.0,CBA
BI_C_Digit,10.0,3.0,74.0,1880.0,1.0,2.0,ABA
BI_C_Digit,10.0,3.0,75.0,449.0,1.0,3.0,CBA
BI_C_Digit,10.0,3.0,76.0,445.0,1.0,2.0,ABA
BI_C_Digit,10.0,3.0,77.0,1027.0,1.0,3.0,ABA
BI_C_Digit,10.0,3.0,78.0,425.0,1.0,2.0,ABA
BI_C_Digit,10.0,3.0,79.0,495.0,1.0,1.0,CBA
BI_C_Digit,10.0,3.0,80.0,374.0,1.0,2.0,ABA
BI_C_Digit,10.0,3.0,81.0,421.0,0.0,3.0,CBA
BI_C_Digit,10.0,3.0,82.0,375.0,1.0,2.0,ABA
BI_C_Digit,10.0,3.0,83.0,1199.0,1.0,1.0,CBA
BI_C_Digit,10.0,3.0,84.0,1339.0,1.0,3.0,CBA
BI_C_Digit,10.0,3.0,85.0,1108.0,1.0,2.0,CBA
BI_C_Digit,10.0,3.0,86.0,2794.0,1.0,1.0,CBA
BI_C_Digit,10.0,3.0,87.0,447.0,1.0,2.0,ABA
BI_C_Digit,10.0,3.0,88.0,533.0,0.0,1.0,ABA
BI_C_Digit,10.0,3.0,89.0,427.0,1.0,3.0,CBA
BI_C_Digit,10.0,3.0,90.0,974.0,1.0,1.0,ABA
BI_C_Digit,10.0,3.0,91.0,401.0,1.0,2.0,CBA
BI_C_Digit,10.0,3.0,92.0,385.0,1.0,1.0,ABA
BI_C_Digit,10.0,3.0,93.0,1325.0,1.0,3.0,CBA
BI_C_Digit,10.0,3.0,94.0,380.0,1.0,2.0,CBA
BI_C_Digit,10.0,3.0,95.0,473.0,1.0,3.0,ABA
BI_C_Digit,10.0,3.0,96.0,2323.0,1.0,1.0,CBA
BI_C_Digit,10.0,3.0,97.0,1038.0,1.0,3.0,ABA
BI_C_Digit,10.0,3.0,98.0,1201.0,0.0,1.0,ABA
BI_C_Digit,10.0,3.0,99.0,611.0,1.0,3.0,ABA
BI_C_Digit,10.0,3.0,100.0,1175.0,1.0,1.0,ABA
BI_C_Digit,10.0,3.0,101.0,577.0,1.0,2.0,CBA
BI_C_Digit,10.0,3.0,102.0,743.0,1.0,3.0,CBA
BI_C_Digit,10.0,3.0,103.0,604.0,1.0,1.0,CBA
BI_C_Digit,10.0,3.0,104.0,1295.0,0.0,3.0,ABA
BI_C_Digit,10.0,3.0,105.0,455.0,1.0,2.0,CBA
BI_C_Digit,10.0,3.0,106.0,1085.0,1.0,3.0,ABA
BI_C_Digit,10.0,3.0,107.0,1403.0,1.0,2.0,ABA
BI_C_Digit,10.0,3.0,108.0,2476.0,1.0,1.0,CBA
BI_C_Digit,10.0,3.0,109.0,498.0,1.0,3.0,CBA
BI_C_Digit,10.0,3.0,110.0,992.0,1.0,1.0,ABA
BI_C_Digit,10.0,3.0,111.0,2885.0,1.0,3.0,ABA
BI_C_Digit,10.0,3.0,112.0,3512.0,1.0,1.0,ABA
BI_C_Digit,10.0,3.0,113.0,501.0,1.0,3.0,ABA
BI_C_Digit,10.0,3.0,114.0,742.0,1.0,2.0,CBA
BI_C_Digit,10.0,3.0,115.0,1229.0,1.0,1.0,CBA
BI_C_Digit,10.0,3.0,116.0,423.0,1.0,3.0,CBA
BI_C_Digit,10.0,3.0,117.0,583.0,1.0,1.0,ABA
BI_C_Digit,10.0,3.0,118.0,429.0,1.0,3.0,ABA
BI_C_Digit,10.0,3.0,119.0,431.0,1.0,2.0,CBA
BI_C_Digit,10.0,3.0,120.0,1079.0,1.0,3.0,ABA
BI_C_Digit,10.0,4.0,1.0,555.0,1.0,2.0,0.0
BI_C_Digit,10.0,4.0,2.0,1762.0,1.0,1.0,0.0
BI_C_Digit,10.0,4.0,3.0,799.0,1.0,2.0,ABA
BI_C_Digit,10.0,4.0,4.0,1199.0,0.0,3.0,CBA
BI_C_Digit,10.0,4.0,5.0,486.0,1.0,2.0,ABA
BI_C_Digit,10.0,4.0,6.0,696.0,1.0,1.0,CBA
BI_C_Digit,10.0,4.0,7.0,417.0,1.0,2.0,ABA
BI_C_Digit,10.0,4.0,8.0,720.0,1.0,3.0,CBA
BI_C_Digit,10.0,4.0,9.0,909.0,0.0,1.0,CBA
BI_C_Digit,10.0,4.0,10.0,522.0,1.0,2.0,CBA
BI_C_Digit,10.0,4.0,11.0,2057.0,1.0,3.0,CBA
BI_C_Digit,10.0,4.0,12.0,390.0,1.0,1.0,CBA
BI_C_Digit,10.0,4.0,13.0,411.0,1.0,3.0,ABA
BI_C_Digit,10.0,4.0,14.0,994.0,1.0,2.0,CBA
BI_C_Digit,10.0,4.0,15.0,1343.0,1.0,1.0,CBA
BI_C_Digit,10.0,4.0,16.0,532.0,1.0,3.0,CBA
BI_C_Digit,10.0,4.0,17.0,3863.0,1.0,1.0,ABA
BI_C_Digit,10.0,4.0,18.0,1222.0,1.0,3.0,ABA
BI_C_Digit,10.0,4.0,19.0,405.0,1.0,1.0,ABA
BI_C_Digit,10.0,4.0,20.0,658.0,1.0,3.0,ABA
BI_C_Digit,10.0,4.0,21.0,1413.0,1.0,1.0,ABA
BI_C_Digit,10.0,4.0,22.0,423.0,1.0,3.0,ABA
BI_C_Digit,10.0,4.0,23.0,412.0,1.0,2.0,CBA
BI_C_Digit,10.0,4.0,24.0,1773.0,1.0,1.0,CBA
BI_C_Digit,10.0,4.0,25.0,429.0,1.0,2.0,ABA
BI_C_Digit,10.0,4.0,26.0,437.0,1.0,3.0,CBA
BI_C_Digit,10.0,4.0,27.0,481.0,1.0,2.0,ABA
BI_C_Digit,10.0,4.0,28.0,988.0,0.0,1.0,CBA
BI_C_Digit,10.0,4.0,29.0,1219.0,1.0,3.0,CBA
BI_C_Digit,10.0,4.0,30.0,1205.0,1.0,1.0,ABA
BI_C_Digit,10.0,4.0,31.0,750.0,1.0,3.0,ABA
BI_C_Digit,10.0,4.0,32.0,401.0,1.0,2.0,CBA
BI_C_Digit,10.0,4.0,33.0,2055.0,1.0,1.0,CBA
BI_C_Digit,10.0,4.0,34.0,784.0,1.0,2.0,ABA
BI_C_Digit,10.0,4.0,35.0,615.0,1.0,3.0,CBA
BI_C_Digit,10.0,4.0,36.0,616.0,1.0,1.0,CBA
BI_C_Digit,10.0,4.0,37.0,801.0,1.0,2.0,CBA
BI_C_Digit,10.0,4.0,38.0,390.0,1.0,1.0,ABA
BI_C_Digit,10.0,4.0,39.0,771.0,0.0,3.0,CBA
BI_C_Digit,10.0,4.0,40.0,518.0,1.0,1.0,ABA
BI_C_Digit,10.0,4.0,41.0,2490.0,1.0,3.0,ABA
BI_C_Digit,10.0,4.0,42.0,729.0,1.0,1.0,ABA
BI_C_Digit,10.0,4.0,43.0,392.0,1.0,3.0,ABA
BI_C_Digit,10.0,4.0,44.0,436.0,1.0,1.0,ABA
BI_C_Digit,10.0,4.0,45.0,442.0,1.0,2.0,CBA
BI_C_Digit,10.0,4.0,46.0,480.0,1.0,1.0,ABA
BI_C_Digit,10.0,4.0,47.0,1068.0,1.0,2.0,ABA
BI_C_Digit,10.0,4.0,48.0,432.0,1.0,3.0,CBA
BI_C_Digit,10.0,4.0,49.0,521.0,1.0,2.0,ABA
BI_C_Digit,10.0,4.0,50.0,499.0,1.0,3.0,ABA
BI_C_Digit,10.0,4.0,51.0,460.0,1.0,1.0,CBA
BI_C_Digit,10.0,4.0,52.0,472.0,1.0,3.0,ABA
BI_C_Digit,10.0,4.0,53.0,628.0,1.0,2.0,CBA
BI_C_Digit,10.0,4.0,54.0,830.0,1.0,1.0,CBA
BI_C_Digit,10.0,4.0,55.0,439.0,1.0,2.0,ABA
BI_C_Digit,10.0,4.0,56.0,771.0,0.0,1.0,ABA
BI_C_Digit,10.0,4.0,57.0,448.0,1.0,3.0,CBA
BI_C_Digit,10.0,4.0,58.0,934.0,1.0,1.0,ABA
BI_C_Digit,10.0,4.0,59.0,539.0,1.0,2.0,CBA
BI_C_Digit,10.0,4.0,60.0,1576.0,1.0,3.0,CBA
BI_C_Digit,10.0,4.0,61.0,483.0,1.0,1.0,CBA
BI_C_Digit,10.0,4.0,62.0,450.0,1.0,3.0,ABA
BI_C_Digit,10.0,4.0,63.0,927.0,1.0,1.0,ABA
BI_C_Digit,10.0,4.0,64.0,856.0,1.0,2.0,CBA
BI_C_Digit,10.0,4.0,65.0,508.0,1.0,3.0,CBA
BI_C_Digit,10.0,4.0,66.0,854.0,1.0,1.0,CBA
BI_C_Digit,10.0,4.0,67.0,542.0,1.0,3.0,ABA
BI_C_Digit,10.0,4.0,68.0,669.0,1.0,2.0,CBA
BI_C_Digit,10.0,4.0,69.0,617.0,1.0,1.0,CBA
BI_C_Digit,10.0,4.0,70.0,415.0,1.0,3.0,CBA
BI_C_Digit,10.0,4.0,71.0,638.0,1.0,1.0,ABA
BI_C_Digit,10.0,4.0,72.0,403.0,1.0,2.0,CBA
BI_C_Digit,10.0,4.0,73.0,921.0,1.0,1.0,ABA
BI_C_Digit,10.0,4.0,74.0,956.0,0.0,2.0,ABA
BI_C_Digit,10.0,4.0,75.0,363.0,1.0,3.0,CBA
BI_C_Digit,10.0,4.0,76.0,1672.0,1.0,1.0,CBA
BI_C_Digit,10.0,4.0,77.0,396.0,1.0,2.0,CBA
BI_C_Digit,10.0,4.0,78.0,434.0,1.0,1.0,ABA
BI_C_Digit,10.0,4.0,79.0,437.0,1.0,3.0,CBA
BI_C_Digit,10.0,4.0,80.0,858.0,1.0,2.0,CBA
BI_C_Digit,10.0,4.0,81.0,635.0,0.0,3.0,ABA
BI_C_Digit,10.0,4.0,82.0,715.0,1.0,2.0,ABA
BI_C_Digit,10.0,4.0,83.0,455.0,1.0,3.0,ABA
BI_C_Digit,10.0,4.0,84.0,459.0,1.0,2.0,ABA
BI_C_Digit,10.0,4.0,85.0,390.0,1.0,1.0,CBA
BI_C_Digit,10.0,4.0,86.0,588.0,1.0,2.0,ABA
BI_C_Digit,10.0,4.0,87.0,580.0,1.0,3.0,CBA
BI_C_Digit,10.0,4.0,88.0,2626.0,1.0,1.0,CBA
BI_C_Digit,10.0,4.0,89.0,458.0,1.0,3.0,ABA
BI_C_Digit,10.0,4.0,90.0,769.0,1.0,1.0,ABA
BI_C_Digit,10.0,4.0,91.0,463.0,1.0,3.0,ABA
BI_C_Digit,10.0,4.0,92.0,449.0,1.0,1.0,ABA
BI_C_Digit,10.0,4.0,93.0,365.0,1.0,2.0,CBA
BI_C_Digit,10.0,4.0,94.0,862.0,1.0,1.0,ABA
BI_C_Digit,10.0,4.0,95.0,1085.0,1.0,2.0,ABA
BI_C_Digit,10.0,4.0,96.0,479.0,1.0,3.0,CBA
BI_C_Digit,10.0,4.0,97.0,373.0,1.0,2.0,ABA
BI_C_Digit,10.0,4.0,98.0,575.0,1.0,3.0,ABA
BI_C_Digit,10.0,4.0,99.0,443.0,1.0,2.0,ABA
BI_C_Digit,10.0,4.0,100.0,926.0,1.0,3.0,ABA
BI_C_Digit,10.0,4.0,101.0,765.0,1.0,2.0,ABA
BI_C_Digit,10.0,4.0,102.0,787.0,1.0,1.0,CBA
BI_C_Digit,10.0,4.0,103.0,766.0,1.0,3.0,CBA
BI_C_Digit,10.0,4.0,104.0,355.0,1.0,2.0,CBA
BI_C_Digit,10.0,4.0,105.0,379.0,1.0,1.0,CBA
BI_C_Digit,10.0,4.0,106.0,426.0,1.0,3.0,CBA
BI_C_Digit,10.0,4.0,107.0,345.0,1.0,2.0,CBA
BI_C_Digit,10.0,4.0,108.0,1010.0,1.0,1.0,CBA
BI_C_Digit,10.0,4.0,109.0,439.0,1.0,2.0,ABA
BI_C_Digit,10.0,4.0,110.0,414.0,1.0,3.0,CBA
BI_C_Digit,10.0,4.0,111.0,369.0,1.0,2.0,ABA
BI_C_Digit,10.0,4.0,112.0,1549.0,1.0,1.0,CBA
BI_C_Digit,10.0,4.0,113.0,4491.0,0.0,3.0,CBA
BI_C_Digit,10.0,4.0,114.0,404.0,1.0,2.0,CBA
BI_C_Digit,10.0,4.0,115.0,936.0,1.0,1.0,CBA
BI_C_Digit,10.0,4.0,116.0,348.0,1.0,2.0,ABA
BI_C_Digit,10.0,4.0,117.0,390.0,1.0,3.0,CBA
BI_C_Digit,10.0,4.0,118.0,359.0,1.0,2.0,ABA
BI_C_Digit,10.0,4.0,119.0,380.0,1.0,3.0,ABA
BI_C_Digit,10.0,4.0,120.0,744.0,1.0,2.0,ABA
BI_C_Digit,11.0,1.0,1.0,714.0,1.0,3.0,0.0
BI_C_Digit,11.0,1.0,2.0,654.0,1.0,2.0,0.0
BI_C_Digit,11.0,1.0,3.0,581.0,0.0,3.0,ABA
BI_C_Digit,11.0,1.0,4.0,362.0,1.0,1.0,CBA
BI_C_Digit,11.0,1.0,5.0,636.0,1.0,3.0,ABA
BI_C_Digit,11.0,1.0,6.0,1059.0,1.0,2.0,CBA
BI_C_Digit,11.0,1.0,7.0,451.0,1.0,1.0,CBA
BI_C_Digit,11.0,1.0,8.0,623.0,1.0,3.0,CBA
BI_C_Digit,11.0,1.0,9.0,414.0,1.0,1.0,ABA
BI_C_Digit,11.0,1.0,10.0,502.0,1.0,3.0,ABA
BI_C_Digit,11.0,1.0,11.0,716.0,0.0,2.0,CBA
BI_C_Digit,11.0,1.0,12.0,467.0,1.0,1.0,CBA
BI_C_Digit,11.0,1.0,13.0,707.0,0.0,3.0,CBA
BI_C_Digit,11.0,1.0,14.0,579.0,1.0,2.0,CBA
BI_C_Digit,11.0,1.0,15.0,811.0,1.0,3.0,ABA
BI_C_Digit,11.0,1.0,16.0,564.0,1.0,1.0,CBA
BI_C_Digit,11.0,1.0,17.0,611.0,1.0,3.0,ABA
BI_C_Digit,11.0,1.0,18.0,665.0,1.0,1.0,ABA
BI_C_Digit,11.0,1.0,19.0,616.0,0.0,2.0,CBA
BI_C_Digit,11.0,1.0,20.0,571.0,0.0,3.0,CBA
BI_C_Digit,11.0,1.0,21.0,459.0,1.0,1.0,CBA
BI_C_Digit,11.0,1.0,22.0,891.0,1.0,3.0,ABA
BI_C_Digit,11.0,1.0,23.0,634.0,1.0,1.0,ABA
BI_C_Digit,11.0,1.0,24.0,1060.0,1.0,2.0,CBA
BI_C_Digit,11.0,1.0,25.0,649.0,1.0,1.0,ABA
BI_C_Digit,11.0,1.0,26.0,622.0,1.0,2.0,ABA
BI_C_Digit,11.0,1.0,27.0,884.0,0.0,3.0,CBA
BI_C_Digit,11.0,1.0,28.0,667.0,1.0,1.0,CBA
BI_C_Digit,11.0,1.0,29.0,653.0,1.0,3.0,ABA
BI_C_Digit,11.0,1.0,30.0,995.0,1.0,2.0,CBA
BI_C_Digit,11.0,1.0,31.0,473.0,1.0,1.0,CBA
BI_C_Digit,11.0,1.0,32.0,569.0,1.0,2.0,ABA
BI_C_Digit,11.0,1.0,33.0,1001.0,1.0,3.0,CBA
BI_C_Digit,11.0,1.0,34.0,459.0,1.0,1.0,CBA
BI_C_Digit,11.0,1.0,35.0,605.0,1.0,3.0,ABA
BI_C_Digit,11.0,1.0,36.0,817.0,1.0,2.0,CBA
BI_C_Digit,11.0,1.0,37.0,406.0,1.0,1.0,CBA
BI_C_Digit,11.0,1.0,38.0,676.0,0.0,2.0,ABA
BI_C_Digit,11.0,1.0,39.0,689.0,0.0,3.0,CBA
BI_C_Digit,11.0,1.0,40.0,1122.0,0.0,2.0,ABA
BI_C_Digit,11.0,1.0,41.0,879.0,1.0,1.0,CBA
BI_C_Digit,11.0,1.0,42.0,696.0,1.0,2.0,ABA
BI_C_Digit,11.0,1.0,43.0,445.0,1.0,1.0,ABA
BI_C_Digit,11.0,1.0,44.0,600.0,1.0,3.0,CBA
BI_C_Digit,11.0,1.0,45.0,1072.0,1.0,2.0,CBA
BI_C_Digit,11.0,1.0,46.0,528.0,1.0,1.0,CBA
BI_C_Digit,11.0,1.0,47.0,506.0,1.0,2.0,ABA
BI_C_Digit,11.0,1.0,48.0,734.0,1.0,3.0,CBA
BI_C_Digit,11.0,1.0,49.0,1064.0,1.0,2.0,ABA
BI_C_Digit,11.0,1.0,50.0,688.0,1.0,3.0,ABA
BI_C_Digit,11.0,1.0,51.0,945.0,0.0,2.0,ABA
BI_C_Digit,11.0,1.0,52.0,390.0,1.0,1.0,CBA
BI_C_Digit,11.0,1.0,53.0,908.0,0.0,3.0,CBA
BI_C_Digit,11.0,1.0,54.0,1188.0,0.0,2.0,CBA
BI_C_Digit,11.0,1.0,55.0,750.0,1.0,3.0,ABA
BI_C_Digit,11.0,1.0,56.0,699.0,0.0,2.0,ABA
BI_C_Digit,11.0,1.0,57.0,1032.0,1.0,3.0,ABA
BI_C_Digit,11.0,1.0,58.0,1060.0,1.0,2.0,ABA
BI_C_Digit,11.0,1.0,59.0,702.0,1.0,3.0,ABA
BI_C_Digit,11.0,1.0,60.0,1030.0,0.0,2.0,ABA
BI_C_Digit,11.0,1.0,61.0,1114.0,1.0,3.0,ABA
BI_C_Digit,11.0,1.0,62.0,313.0,1.0,1.0,CBA
BI_C_Digit,11.0,1.0,63.0,686.0,1.0,3.0,ABA
BI_C_Digit,11.0,1.0,64.0,616.0,1.0,1.0,ABA
BI_C_Digit,11.0,1.0,65.0,856.0,0.0,2.0,CBA
BI_C_Digit,11.0,1.0,66.0,574.0,1.0,1.0,ABA
BI_C_Digit,11.0,1.0,67.0,998.0,0.0,2.0,ABA
BI_C_Digit,11.0,1.0,68.0,641.0,1.0,3.0,CBA
BI_C_Digit,11.0,1.0,69.0,818.0,1.0,1.0,CBA
BI_C_Digit,11.0,1.0,70.0,750.0,1.0,2.0,CBA
BI_C_Digit,11.0,1.0,71.0,671.0,1.0,3.0,CBA
BI_C_Digit,11.0,1.0,72.0,819.0,1.0,2.0,ABA
BI_C_Digit,11.0,1.0,73.0,909.0,0.0,3.0,ABA
BI_C_Digit,11.0,1.0,74.0,483.0,1.0,1.0,CBA
BI_C_Digit,11.0,1.0,75.0,890.0,0.0,2.0,CBA
BI_C_Digit,11.0,1.0,76.0,1052.0,1.0,1.0,ABA
BI_C_Digit,11.0,1.0,77.0,655.0,1.0,2.0,ABA
BI_C_Digit,11.0,1.0,78.0,702.0,1.0,3.0,CBA
BI_C_Digit,11.0,1.0,79.0,634.0,1.0,1.0,CBA
BI_C_Digit,11.0,1.0,80.0,717.0,0.0,2.0,CBA
BI_C_Digit,11.0,1.0,81.0,368.0,1.0,1.0,ABA
BI_C_Digit,11.0,1.0,82.0,500.0,1.0,3.0,CBA
BI_C_Digit,11.0,1.0,83.0,669.0,1.0,2.0,CBA
BI_C_Digit,11.0,1.0,84.0,490.0,1.0,1.0,CBA
BI_C_Digit,11.0,1.0,85.0,668.0,1.0,3.0,CBA
BI_C_Digit,11.0,1.0,86.0,390.0,1.0,1.0,ABA
BI_C_Digit,11.0,1.0,87.0,697.0,1.0,3.0,ABA
BI_C_Digit,11.0,1.0,88.0,334.0,1.0,1.0,ABA
BI_C_Digit,11.0,1.0,89.0,355.0,1.0,3.0,ABA
BI_C_Digit,11.0,1.0,90.0,759.0,0.0,2.0,CBA
BI_C_Digit,11.0,1.0,91.0,607.0,1.0,3.0,ABA
BI_C_Digit,11.0,1.0,92.0,702.0,0.0,2.0,ABA
BI_C_Digit,11.0,1.0,93.0,649.0,0.0,1.0,CBA
BI_C_Digit,11.0,1.0,94.0,530.0,0.0,3.0,CBA
BI_C_Digit,11.0,1.0,95.0,774.0,1.0,2.0,CBA
BI_C_Digit,11.0,1.0,96.0,759.0,1.0,3.0,ABA
BI_C_Digit,11.0,1.0,97.0,652.0,1.0,1.0,CBA
BI_C_Digit,11.0,1.0,98.0,455.0,0.0,2.0,CBA
BI_C_Digit,11.0,1.0,99.0,669.0,1.0,1.0,ABA
BI_C_Digit,11.0,1.0,100.0,984.0,1.0,3.0,CBA
BI_C_Digit,11.0,1.0,101.0,691.0,1.0,1.0,ABA
BI_C_Digit,11.0,1.0,102.0,597.0,0.0,3.0,ABA
BI_C_Digit,11.0,1.0,103.0,385.0,0.0,2.0,CBA
BI_C_Digit,11.0,1.0,104.0,387.0,1.0,1.0,CBA
BI_C_Digit,11.0,1.0,105.0,830.0,0.0,2.0,ABA
BI_C_Digit,11.0,1.0,106.0,385.0,1.0,1.0,ABA
BI_C_Digit,11.0,1.0,107.0,402.0,1.0,3.0,CBA
BI_C_Digit,11.0,1.0,108.0,466.0,1.0,1.0,ABA
BI_C_Digit,11.0,1.0,109.0,802.0,1.0,3.0,ABA
BI_C_Digit,11.0,1.0,110.0,556.0,1.0,2.0,CBA
BI_C_Digit,11.0,1.0,111.0,718.0,1.0,1.0,CBA
BI_C_Digit,11.0,1.0,112.0,944.0,0.0,3.0,CBA
BI_C_Digit,11.0,1.0,113.0,602.0,1.0,1.0,ABA
BI_C_Digit,11.0,1.0,114.0,651.0,1.0,2.0,CBA
BI_C_Digit,11.0,1.0,115.0,452.0,1.0,1.0,ABA
BI_C_Digit,11.0,1.0,116.0,560.0,1.0,2.0,ABA
BI_C_Digit,11.0,1.0,117.0,503.0,1.0,1.0,ABA
BI_C_Digit,11.0,1.0,118.0,701.0,1.0,2.0,ABA
BI_C_Digit,11.0,1.0,119.0,739.0,1.0,1.0,ABA
BI_C_Digit,11.0,1.0,120.0,429.0,0.0,2.0,ABA
BI_C_Digit,11.0,2.0,1.0,426.0,0.0,3.0,0.0
BI_C_Digit,11.0,2.0,2.0,726.0,1.0,2.0,0.0
BI_C_Digit,11.0,2.0,3.0,961.0,0.0,3.0,ABA
BI_C_Digit,11.0,2.0,4.0,504.0,0.0,2.0,ABA
BI_C_Digit,11.0,2.0,5.0,1057.0,1.0,3.0,ABA
BI_C_Digit,11.0,2.0,6.0,1006.0,0.0,2.0,ABA
BI_C_Digit,11.0,2.0,7.0,913.0,0.0,3.0,ABA
BI_C_Digit,11.0,2.0,8.0,777.0,0.0,2.0,ABA
BI_C_Digit,11.0,2.0,9.0,444.0,1.0,1.0,CBA
BI_C_Digit,11.0,2.0,10.0,598.0,0.0,2.0,ABA
BI_C_Digit,11.0,2.0,11.0,393.0,1.0,1.0,ABA
BI_C_Digit,11.0,2.0,12.0,566.0,0.0,2.0,ABA
BI_C_Digit,11.0,2.0,13.0,511.0,1.0,1.0,ABA
BI_C_Digit,11.0,2.0,14.0,722.0,1.0,3.0,CBA
BI_C_Digit,11.0,2.0,15.0,619.0,0.0,1.0,ABA
BI_C_Digit,11.0,2.0,16.0,535.0,0.0,3.0,ABA
BI_C_Digit,11.0,2.0,17.0,599.0,0.0,2.0,CBA
BI_C_Digit,11.0,2.0,18.0,417.0,1.0,1.0,CBA
BI_C_Digit,11.0,2.0,19.0,584.0,1.0,3.0,CBA
BI_C_Digit,11.0,2.0,20.0,906.0,1.0,2.0,CBA
BI_C_Digit,11.0,2.0,21.0,457.0,1.0,1.0,CBA
BI_C_Digit,11.0,2.0,22.0,456.0,1.0,3.0,CBA
BI_C_Digit,11.0,2.0,23.0,885.0,1.0,2.0,CBA
BI_C_Digit,11.0,2.0,24.0,747.0,1.0,3.0,ABA
BI_C_Digit,11.0,2.0,25.0,790.0,1.0,2.0,ABA
BI_C_Digit,11.0,2.0,26.0,471.0,1.0,1.0,CBA
BI_C_Digit,11.0,2.0,27.0,837.0,1.0,3.0,CBA
BI_C_Digit,11.0,2.0,28.0,618.0,1.0,2.0,CBA
BI_C_Digit,11.0,2.0,29.0,933.0,0.0,3.0,ABA
BI_C_Digit,11.0,2.0,30.0,687.0,1.0,1.0,CBA
BI_C_Digit,11.0,2.0,31.0,512.0,1.0,3.0,ABA
BI_C_Digit,11.0,2.0,32.0,674.0,1.0,1.0,ABA
BI_C_Digit,11.0,2.0,33.0,423.0,1.0,2.0,CBA
BI_C_Digit,11.0,2.0,34.0,601.0,1.0,3.0,CBA
BI_C_Digit,11.0,2.0,35.0,763.0,1.0,1.0,CBA
BI_C_Digit,11.0,2.0,36.0,723.0,1.0,2.0,CBA
BI_C_Digit,11.0,2.0,37.0,698.0,1.0,3.0,CBA
BI_C_Digit,11.0,2.0,38.0,847.0,1.0,1.0,CBA
BI_C_Digit,11.0,2.0,39.0,580.0,1.0,2.0,CBA
BI_C_Digit,11.0,2.0,40.0,652.0,1.0,1.0,ABA
BI_C_Digit,11.0,2.0,41.0,742.0,1.0,2.0,ABA
BI_C_Digit,11.0,2.0,42.0,580.0,1.0,3.0,CBA
BI_C_Digit,11.0,2.0,43.0,364.0,1.0,1.0,CBA
BI_C_Digit,11.0,2.0,44.0,610.0,1.0,2.0,CBA
BI_C_Digit,11.0,2.0,45.0,462.0,1.0,1.0,ABA
BI_C_Digit,11.0,2.0,46.0,726.0,0.0,3.0,CBA
BI_C_Digit,11.0,2.0,47.0,385.0,1.0,1.0,ABA
BI_C_Digit,11.0,2.0,48.0,530.0,1.0,3.0,ABA
BI_C_Digit,11.0,2.0,49.0,439.0,1.0,1.0,ABA
BI_C_Digit,11.0,2.0,50.0,636.0,1.0,3.0,ABA
BI_C_Digit,11.0,2.0,51.0,789.0,1.0,2.0,CBA
BI_C_Digit,11.0,2.0,52.0,437.0,1.0,1.0,CBA
BI_C_Digit,11.0,2.0,53.0,596.0,1.0,2.0,ABA
BI_C_Digit,11.0,2.0,54.0,702.0,0.0,3.0,CBA
BI_C_Digit,11.0,2.0,55.0,601.0,0.0,2.0,ABA
BI_C_Digit,11.0,2.0,56.0,377.0,1.0,1.0,CBA
BI_C_Digit,11.0,2.0,57.0,868.0,1.0,2.0,ABA
BI_C_Digit,11.0,2.0,58.0,521.0,1.0,1.0,ABA
BI_C_Digit,11.0,2.0,59.0,527.0,1.0,2.0,ABA
BI_C_Digit,11.0,2.0,60.0,398.0,1.0,1.0,ABA
BI_C_Digit,11.0,2.0,61.0,851.0,1.0,2.0,ABA
BI_C_Digit,11.0,2.0,62.0,514.0,1.0,1.0,ABA
BI_C_Digit,11.0,2.0,63.0,1242.0,1.0,3.0,CBA
BI_C_Digit,11.0,2.0,64.0,582.0,0.0,2.0,CBA
BI_C_Digit,11.0,2.0,65.0,613.0,1.0,1.0,CBA
BI_C_Digit,11.0,2.0,66.0,441.0,0.0,2.0,ABA
BI_C_Digit,11.0,2.0,67.0,463.0,1.0,1.0,ABA
BI_C_Digit,11.0,2.0,68.0,683.0,1.0,3.0,CBA
BI_C_Digit,11.0,2.0,69.0,647.0,0.0,2.0,CBA
BI_C_Digit,11.0,2.0,70.0,771.0,1.0,1.0,CBA
BI_C_Digit,11.0,2.0,71.0,682.0,1.0,3.0,CBA
BI_C_Digit,11.0,2.0,72.0,1048.0,1.0,2.0,CBA
BI_C_Digit,11.0,2.0,73.0,420.0,1.0,1.0,CBA
BI_C_Digit,11.0,2.0,74.0,419.0,0.0,2.0,ABA
BI_C_Digit,11.0,2.0,75.0,455.0,0.0,3.0,CBA
BI_C_Digit,11.0,2.0,76.0,573.0,0.0,2.0,ABA
BI_C_Digit,11.0,2.0,77.0,839.0,1.0,3.0,ABA
BI_C_Digit,11.0,2.0,78.0,844.0,1.0,2.0,ABA
BI_C_Digit,11.0,2.0,79.0,427.0,1.0,1.0,CBA
BI_C_Digit,11.0,2.0,80.0,1284.0,1.0,2.0,ABA
BI_C_Digit,11.0,2.0,81.0,334.0,1.0,3.0,CBA
BI_C_Digit,11.0,2.0,82.0,428.0,1.0,2.0,ABA
BI_C_Digit,11.0,2.0,83.0,507.0,1.0,1.0,CBA
BI_C_Digit,11.0,2.0,84.0,627.0,1.0,3.0,CBA
BI_C_Digit,11.0,2.0,85.0,598.0,0.0,2.0,CBA
BI_C_Digit,11.0,2.0,86.0,673.0,0.0,1.0,CBA
BI_C_Digit,11.0,2.0,87.0,1271.0,1.0,2.0,ABA
BI_C_Digit,11.0,2.0,88.0,581.0,1.0,1.0,ABA
BI_C_Digit,11.0,2.0,89.0,1565.0,1.0,3.0,CBA
BI_C_Digit,11.0,2.0,90.0,774.0,0.0,1.0,ABA
BI_C_Digit,11.0,2.0,91.0,544.0,1.0,2.0,CBA
BI_C_Digit,11.0,2.0,92.0,348.0,1.0,1.0,ABA
BI_C_Digit,11.0,2.0,93.0,418.0,1.0,3.0,CBA
BI_C_Digit,11.0,2.0,94.0,1264.0,1.0,2.0,CBA
BI_C_Digit,11.0,2.0,95.0,581.0,1.0,3.0,ABA
BI_C_Digit,11.0,2.0,96.0,751.0,1.0,1.0,CBA
BI_C_Digit,11.0,2.0,97.0,411.0,0.0,3.0,ABA
BI_C_Digit,11.0,2.0,98.0,409.0,1.0,1.0,ABA
BI_C_Digit,11.0,2.0,99.0,900.0,1.0,3.0,ABA
BI_C_Digit,11.0,2.0,100.0,396.0,1.0,1.0,ABA
BI_C_Digit,11.0,2.0,101.0,586.0,1.0,2.0,CBA
BI_C_Digit,11.0,2.0,102.0,545.0,1.0,3.0,CBA
BI_C_Digit,11.0,2.0,103.0,1067.0,1.0,1.0,CBA
BI_C_Digit,11.0,2.0,104.0,523.0,1.0,3.0,ABA
BI_C_Digit,11.0,2.0,105.0,572.0,1.0,2.0,CBA
BI_C_Digit,11.0,2.0,106.0,787.0,0.0,3.0,ABA
BI_C_Digit,11.0,2.0,107.0,540.0,1.0,2.0,ABA
BI_C_Digit,11.0,2.0,108.0,383.0,1.0,1.0,CBA
BI_C_Digit,11.0,2.0,109.0,493.0,1.0,3.0,CBA
BI_C_Digit,11.0,2.0,110.0,386.0,1.0,1.0,ABA
BI_C_Digit,11.0,2.0,111.0,505.0,1.0,3.0,ABA
BI_C_Digit,11.0,2.0,112.0,755.0,1.0,1.0,ABA
BI_C_Digit,11.0,2.0,113.0,836.0,0.0,3.0,ABA
BI_C_Digit,11.0,2.0,114.0,790.0,1.0,2.0,CBA
BI_C_Digit,11.0,2.0,115.0,860.0,1.0,1.0,CBA
BI_C_Digit,11.0,2.0,116.0,849.0,0.0,3.0,CBA
BI_C_Digit,11.0,2.0,117.0,1013.0,1.0,1.0,ABA
BI_C_Digit,11.0,2.0,118.0,500.0,1.0,3.0,ABA
BI_C_Digit,11.0,2.0,119.0,1031.0,1.0,2.0,CBA
BI_C_Digit,11.0,2.0,120.0,453.0,1.0,3.0,ABA
BI_C_Digit,11.0,3.0,1.0,852.0,1.0,2.0,0.0
BI_C_Digit,11.0,3.0,2.0,404.0,1.0,1.0,0.0
BI_C_Digit,11.0,3.0,3.0,550.0,1.0,2.0,ABA
BI_C_Digit,11.0,3.0,4.0,498.0,1.0,3.0,CBA
BI_C_Digit,11.0,3.0,5.0,686.0,0.0,2.0,ABA
BI_C_Digit,11.0,3.0,6.0,338.0,1.0,1.0,CBA
BI_C_Digit,11.0,3.0,7.0,739.0,1.0,2.0,ABA
BI_C_Digit,11.0,3.0,8.0,443.0,1.0,3.0,CBA
BI_C_Digit,11.0,3.0,9.0,841.0,1.0,1.0,CBA
BI_C_Digit,11.0,3.0,10.0,488.0,0.0,2.0,CBA
BI_C_Digit,11.0,3.0,11.0,981.0,1.0,3.0,CBA
BI_C_Digit,11.0,3.0,12.0,880.0,1.0,1.0,CBA
BI_C_Digit,11.0,3.0,13.0,587.0,1.0,3.0,ABA
BI_C_Digit,11.0,3.0,14.0,872.0,0.0,2.0,CBA
BI_C_Digit,11.0,3.0,15.0,485.0,0.0,1.0,CBA
BI_C_Digit,11.0,3.0,16.0,739.0,1.0,3.0,CBA
BI_C_Digit,11.0,3.0,17.0,782.0,1.0,1.0,ABA
BI_C_Digit,11.0,3.0,18.0,562.0,1.0,3.0,ABA
BI_C_Digit,11.0,3.0,19.0,432.0,1.0,1.0,ABA
BI_C_Digit,11.0,3.0,20.0,801.0,1.0,3.0,ABA
BI_C_Digit,11.0,3.0,21.0,1043.0,1.0,1.0,ABA
BI_C_Digit,11.0,3.0,22.0,873.0,1.0,3.0,ABA
BI_C_Digit,11.0,3.0,23.0,589.0,1.0,2.0,CBA
BI_C_Digit,11.0,3.0,24.0,558.0,1.0,1.0,CBA
BI_C_Digit,11.0,3.0,25.0,592.0,1.0,2.0,ABA
BI_C_Digit,11.0,3.0,26.0,675.0,1.0,3.0,CBA
BI_C_Digit,11.0,3.0,27.0,1128.0,1.0,2.0,ABA
BI_C_Digit,11.0,3.0,28.0,738.0,1.0,1.0,CBA
BI_C_Digit,11.0,3.0,29.0,785.0,1.0,3.0,CBA
BI_C_Digit,11.0,3.0,30.0,928.0,1.0,1.0,ABA
BI_C_Digit,11.0,3.0,31.0,717.0,1.0,3.0,ABA
BI_C_Digit,11.0,3.0,32.0,485.0,0.0,2.0,CBA
BI_C_Digit,11.0,3.0,33.0,525.0,1.0,1.0,CBA
BI_C_Digit,11.0,3.0,34.0,513.0,0.0,2.0,ABA
BI_C_Digit,11.0,3.0,35.0,522.0,1.0,3.0,CBA
BI_C_Digit,11.0,3.0,36.0,492.0,1.0,1.0,CBA
BI_C_Digit,11.0,3.0,37.0,677.0,1.0,2.0,CBA
BI_C_Digit,11.0,3.0,38.0,488.0,1.0,1.0,ABA
BI_C_Digit,11.0,3.0,39.0,742.0,1.0,3.0,CBA
BI_C_Digit,11.0,3.0,40.0,576.0,1.0,1.0,ABA
BI_C_Digit,11.0,3.0,41.0,780.0,1.0,3.0,ABA
BI_C_Digit,11.0,3.0,42.0,450.0,1.0,1.0,ABA
BI_C_Digit,11.0,3.0,43.0,627.0,0.0,3.0,ABA
BI_C_Digit,11.0,3.0,44.0,337.0,0.0,1.0,ABA
BI_C_Digit,11.0,3.0,45.0,1290.0,0.0,2.0,CBA
BI_C_Digit,11.0,3.0,46.0,422.0,1.0,1.0,ABA
BI_C_Digit,11.0,3.0,47.0,611.0,1.0,2.0,ABA
BI_C_Digit,11.0,3.0,48.0,770.0,1.0,3.0,CBA
BI_C_Digit,11.0,3.0,49.0,628.0,1.0,2.0,ABA
BI_C_Digit,11.0,3.0,50.0,651.0,1.0,3.0,ABA
BI_C_Digit,11.0,3.0,51.0,632.0,1.0,1.0,CBA
BI_C_Digit,11.0,3.0,52.0,984.0,1.0,3.0,ABA
BI_C_Digit,11.0,3.0,53.0,903.0,0.0,2.0,CBA
BI_C_Digit,11.0,3.0,54.0,775.0,1.0,1.0,CBA
BI_C_Digit,11.0,3.0,55.0,1092.0,1.0,2.0,ABA
BI_C_Digit,11.0,3.0,56.0,503.0,1.0,1.0,ABA
BI_C_Digit,11.0,3.0,57.0,1066.0,1.0,3.0,CBA
BI_C_Digit,11.0,3.0,58.0,836.0,1.0,1.0,ABA
BI_C_Digit,11.0,3.0,59.0,1077.0,1.0,2.0,CBA
BI_C_Digit,11.0,3.0,60.0,1284.0,1.0,3.0,CBA
BI_C_Digit,11.0,3.0,61.0,947.0,1.0,1.0,CBA
BI_C_Digit,11.0,3.0,62.0,1307.0,1.0,3.0,ABA
BI_C_Digit,11.0,3.0,63.0,1597.0,1.0,1.0,ABA
BI_C_Digit,11.0,3.0,64.0,919.0,1.0,2.0,CBA
BI_C_Digit,11.0,3.0,65.0,1474.0,1.0,3.0,CBA
BI_C_Digit,11.0,3.0,66.0,914.0,1.0,1.0,CBA
BI_C_Digit,11.0,3.0,67.0,1367.0,1.0,3.0,ABA
BI_C_Digit,11.0,3.0,68.0,1118.0,1.0,2.0,CBA
BI_C_Digit,11.0,3.0,69.0,456.0,1.0,1.0,CBA
BI_C_Digit,11.0,3.0,70.0,615.0,1.0,3.0,CBA
BI_C_Digit,11.0,3.0,71.0,425.0,1.0,1.0,ABA
BI_C_Digit,11.0,3.0,72.0,636.0,1.0,2.0,CBA
BI_C_Digit,11.0,3.0,73.0,718.0,1.0,1.0,ABA
BI_C_Digit,11.0,3.0,74.0,558.0,1.0,2.0,ABA
BI_C_Digit,11.0,3.0,75.0,402.0,1.0,3.0,CBA
BI_C_Digit,11.0,3.0,76.0,726.0,0.0,1.0,CBA
BI_C_Digit,11.0,3.0,77.0,951.0,1.0,2.0,CBA
BI_C_Digit,11.0,3.0,78.0,475.0,1.0,1.0,ABA
BI_C_Digit,11.0,3.0,79.0,771.0,1.0,3.0,CBA
BI_C_Digit,11.0,3.0,80.0,692.0,0.0,2.0,CBA
BI_C_Digit,11.0,3.0,81.0,1225.0,1.0,3.0,ABA
BI_C_Digit,11.0,3.0,82.0,621.0,1.0,2.0,ABA
BI_C_Digit,11.0,3.0,83.0,899.0,1.0,3.0,ABA
BI_C_Digit,11.0,3.0,84.0,1120.0,1.0,2.0,ABA
BI_C_Digit,11.0,3.0,85.0,587.0,1.0,1.0,CBA
BI_C_Digit,11.0,3.0,86.0,1358.0,1.0,2.0,ABA
BI_C_Digit,11.0,3.0,87.0,604.0,1.0,3.0,CBA
BI_C_Digit,11.0,3.0,88.0,355.0,1.0,1.0,CBA
BI_C_Digit,11.0,3.0,89.0,762.0,1.0,3.0,ABA
BI_C_Digit,11.0,3.0,90.0,1096.0,1.0,1.0,ABA
BI_C_Digit,11.0,3.0,91.0,1058.0,1.0,3.0,ABA
BI_C_Digit,11.0,3.0,92.0,857.0,1.0,1.0,ABA
BI_C_Digit,11.0,3.0,93.0,2030.0,1.0,2.0,CBA
BI_C_Digit,11.0,3.0,94.0,724.0,1.0,1.0,ABA
BI_C_Digit,11.0,3.0,95.0,708.0,1.0,2.0,ABA
BI_C_Digit,11.0,3.0,96.0,1182.0,1.0,3.0,CBA
BI_C_Digit,11.0,3.0,97.0,1104.0,1.0,2.0,ABA
BI_C_Digit,11.0,3.0,98.0,1941.0,1.0,3.0,ABA
BI_C_Digit,11.0,3.0,99.0,1084.0,1.0,2.0,ABA
BI_C_Digit,11.0,3.0,100.0,1078.0,1.0,3.0,ABA
BI_C_Digit,11.0,3.0,101.0,945.0,1.0,2.0,ABA
BI_C_Digit,11.0,3.0,102.0,501.0,1.0,1.0,CBA
BI_C_Digit,11.0,3.0,103.0,1304.0,1.0,3.0,CBA
BI_C_Digit,11.0,3.0,104.0,744.0,1.0,2.0,CBA
BI_C_Digit,11.0,3.0,105.0,402.0,1.0,1.0,CBA
BI_C_Digit,11.0,3.0,106.0,1052.0,1.0,3.0,CBA
BI_C_Digit,11.0,3.0,107.0,492.0,0.0,2.0,CBA
BI_C_Digit,11.0,3.0,108.0,505.0,1.0,1.0,CBA
BI_C_Digit,11.0,3.0,109.0,759.0,1.0,2.0,ABA
BI_C_Digit,11.0,3.0,110.0,513.0,1.0,3.0,CBA
BI_C_Digit,11.0,3.0,111.0,623.0,0.0,2.0,ABA
BI_C_Digit,11.0,3.0,112.0,468.0,1.0,1.0,CBA
BI_C_Digit,11.0,3.0,113.0,565.0,0.0,3.0,CBA
BI_C_Digit,11.0,3.0,114.0,1439.0,1.0,2.0,CBA
BI_C_Digit,11.0,3.0,115.0,526.0,1.0,1.0,CBA
BI_C_Digit,11.0,3.0,116.0,703.0,1.0,2.0,ABA
BI_C_Digit,11.0,3.0,117.0,954.0,1.0,3.0,CBA
BI_C_Digit,11.0,3.0,118.0,661.0,1.0,2.0,ABA
BI_C_Digit,11.0,3.0,119.0,564.0,1.0,3.0,ABA
BI_C_Digit,11.0,3.0,120.0,1298.0,1.0,2.0,ABA
BI_C_Digit,11.0,4.0,1.0,1167.0,1.0,3.0,0.0
BI_C_Digit,11.0,4.0,2.0,644.0,1.0,2.0,0.0
BI_C_Digit,11.0,4.0,3.0,509.0,1.0,3.0,ABA
BI_C_Digit,11.0,4.0,4.0,467.0,1.0,2.0,ABA
BI_C_Digit,11.0,4.0,5.0,1155.0,1.0,3.0,ABA
BI_C_Digit,11.0,4.0,6.0,377.0,1.0,1.0,CBA
BI_C_Digit,11.0,4.0,7.0,637.0,1.0,2.0,CBA
BI_C_Digit,11.0,4.0,8.0,821.0,1.0,1.0,ABA
BI_C_Digit,11.0,4.0,9.0,594.0,1.0,2.0,ABA
BI_C_Digit,11.0,4.0,10.0,465.0,1.0,1.0,ABA
BI_C_Digit,11.0,4.0,11.0,1622.0,1.0,2.0,ABA
BI_C_Digit,11.0,4.0,12.0,709.0,1.0,3.0,CBA
BI_C_Digit,11.0,4.0,13.0,943.0,1.0,2.0,ABA
BI_C_Digit,11.0,4.0,14.0,1117.0,1.0,3.0,ABA
BI_C_Digit,11.0,4.0,15.0,438.0,1.0,1.0,CBA
BI_C_Digit,11.0,4.0,16.0,476.0,1.0,3.0,ABA
BI_C_Digit,11.0,4.0,17.0,563.0,1.0,1.0,ABA
BI_C_Digit,11.0,4.0,18.0,597.0,1.0,3.0,ABA
BI_C_Digit,11.0,4.0,19.0,1315.0,1.0,1.0,ABA
BI_C_Digit,11.0,4.0,20.0,1118.0,1.0,3.0,ABA
BI_C_Digit,11.0,4.0,21.0,758.0,1.0,2.0,CBA
BI_C_Digit,11.0,4.0,22.0,1072.0,1.0,1.0,CBA
BI_C_Digit,11.0,4.0,23.0,654.0,0.0,3.0,CBA
BI_C_Digit,11.0,4.0,24.0,638.0,1.0,2.0,CBA
BI_C_Digit,11.0,4.0,25.0,1019.0,1.0,3.0,ABA
BI_C_Digit,11.0,4.0,26.0,511.0,1.0,1.0,CBA
BI_C_Digit,11.0,4.0,27.0,1322.0,1.0,2.0,CBA
BI_C_Digit,11.0,4.0,28.0,701.0,1.0,1.0,ABA
BI_C_Digit,11.0,4.0,29.0,815.0,1.0,3.0,CBA
BI_C_Digit,11.0,4.0,30.0,1229.0,1.0,1.0,ABA
BI_C_Digit,11.0,4.0,31.0,1038.0,0.0,2.0,CBA
BI_C_Digit,11.0,4.0,32.0,623.0,1.0,1.0,ABA
BI_C_Digit,11.0,4.0,33.0,1040.0,1.0,2.0,ABA
BI_C_Digit,11.0,4.0,34.0,1873.0,1.0,3.0,CBA
BI_C_Digit,11.0,4.0,35.0,1068.0,0.0,2.0,ABA
BI_C_Digit,11.0,4.0,36.0,806.0,1.0,1.0,CBA
BI_C_Digit,11.0,4.0,37.0,649.0,1.0,2.0,ABA
BI_C_Digit,11.0,4.0,38.0,717.0,1.0,3.0,CBA
BI_C_Digit,11.0,4.0,39.0,391.0,1.0,1.0,CBA
BI_C_Digit,11.0,4.0,40.0,875.0,1.0,2.0,CBA
BI_C_Digit,11.0,4.0,41.0,584.0,1.0,3.0,CBA
BI_C_Digit,11.0,4.0,42.0,414.0,1.0,1.0,CBA
BI_C_Digit,11.0,4.0,43.0,778.0,1.0,3.0,ABA
BI_C_Digit,11.0,4.0,44.0,410.0,1.0,1.0,ABA
BI_C_Digit,11.0,4.0,45.0,737.0,1.0,2.0,CBA
BI_C_Digit,11.0,4.0,46.0,661.0,1.0,1.0,ABA
BI_C_Digit,11.0,4.0,47.0,476.0,1.0,3.0,CBA
BI_C_Digit,11.0,4.0,48.0,1106.0,1.0,2.0,CBA
BI_C_Digit,11.0,4.0,49.0,369.0,1.0,1.0,CBA
BI_C_Digit,11.0,4.0,50.0,538.0,1.0,3.0,CBA
BI_C_Digit,11.0,4.0,51.0,874.0,1.0,2.0,CBA
BI_C_Digit,11.0,4.0,52.0,640.0,1.0,3.0,ABA
BI_C_Digit,11.0,4.0,53.0,778.0,1.0,1.0,CBA
BI_C_Digit,11.0,4.0,54.0,867.0,1.0,2.0,CBA
BI_C_Digit,11.0,4.0,55.0,1311.0,1.0,3.0,CBA
BI_C_Digit,11.0,4.0,56.0,664.0,1.0,2.0,ABA
BI_C_Digit,11.0,4.0,57.0,765.0,1.0,1.0,CBA
BI_C_Digit,11.0,4.0,58.0,1278.0,1.0,2.0,ABA
BI_C_Digit,11.0,4.0,59.0,1488.0,1.0,3.0,CBA
BI_C_Digit,11.0,4.0,60.0,651.0,1.0,1.0,CBA
BI_C_Digit,11.0,4.0,61.0,1093.0,0.0,2.0,CBA
BI_C_Digit,11.0,4.0,62.0,504.0,1.0,1.0,ABA
BI_C_Digit,11.0,4.0,63.0,568.0,1.0,2.0,ABA
BI_C_Digit,11.0,4.0,64.0,734.0,1.0,3.0,CBA
BI_C_Digit,11.0,4.0,65.0,1078.0,1.0,2.0,ABA
BI_C_Digit,11.0,4.0,66.0,1084.0,1.0,3.0,ABA
BI_C_Digit,11.0,4.0,67.0,426.0,1.0,1.0,CBA
BI_C_Digit,11.0,4.0,68.0,1336.0,1.0,2.0,CBA
BI_C_Digit,11.0,4.0,69.0,756.0,1.0,3.0,CBA
BI_C_Digit,11.0,4.0,70.0,556.0,1.0,1.0,CBA
BI_C_Digit,11.0,4.0,71.0,1044.0,1.0,2.0,CBA
BI_C_Digit,11.0,4.0,72.0,512.0,1.0,1.0,ABA
BI_C_Digit,11.0,4.0,73.0,1204.0,1.0,2.0,ABA
BI_C_Digit,11.0,4.0,74.0,486.0,1.0,1.0,ABA
BI_C_Digit,11.0,4.0,75.0,830.0,1.0,3.0,CBA
BI_C_Digit,11.0,4.0,76.0,1063.0,1.0,1.0,ABA
BI_C_Digit,11.0,4.0,77.0,1114.0,1.0,2.0,CBA
BI_C_Digit,11.0,4.0,78.0,505.0,1.0,3.0,CBA
BI_C_Digit,11.0,4.0,79.0,1176.0,1.0,2.0,ABA
BI_C_Digit,11.0,4.0,80.0,409.0,1.0,1.0,CBA
BI_C_Digit,11.0,4.0,81.0,896.0,1.0,2.0,ABA
BI_C_Digit,11.0,4.0,82.0,374.0,1.0,1.0,ABA
BI_C_Digit,11.0,4.0,83.0,1136.0,1.0,2.0,ABA
BI_C_Digit,11.0,4.0,84.0,764.0,1.0,3.0,CBA
BI_C_Digit,11.0,4.0,85.0,1604.0,1.0,2.0,ABA
BI_C_Digit,11.0,4.0,86.0,1081.0,1.0,3.0,ABA
BI_C_Digit,11.0,4.0,87.0,893.0,1.0,2.0,ABA
BI_C_Digit,11.0,4.0,88.0,662.0,1.0,1.0,CBA
BI_C_Digit,11.0,4.0,89.0,1028.0,1.0,2.0,ABA
BI_C_Digit,11.0,4.0,90.0,1356.0,1.0,3.0,CBA
BI_C_Digit,11.0,4.0,91.0,1059.0,1.0,1.0,CBA
BI_C_Digit,11.0,4.0,92.0,1147.0,1.0,3.0,ABA
BI_C_Digit,11.0,4.0,93.0,432.0,1.0,1.0,ABA
BI_C_Digit,11.0,4.0,94.0,920.0,0.0,3.0,ABA
BI_C_Digit,11.0,4.0,95.0,626.0,1.0,2.0,CBA
BI_C_Digit,11.0,4.0,96.0,1057.0,1.0,1.0,CBA
BI_C_Digit,11.0,4.0,97.0,615.0,1.0,2.0,ABA
BI_C_Digit,11.0,4.0,98.0,1165.0,1.0,3.0,CBA
BI_C_Digit,11.0,4.0,99.0,822.0,1.0,2.0,ABA
BI_C_Digit,11.0,4.0,100.0,890.0,1.0,3.0,ABA
BI_C_Digit,11.0,4.0,101.0,450.0,1.0,1.0,CBA
BI_C_Digit,11.0,4.0,102.0,607.0,1.0,2.0,CBA
BI_C_Digit,11.0,4.0,103.0,789.0,1.0,1.0,ABA
BI_C_Digit,11.0,4.0,104.0,1174.0,1.0,3.0,CBA
BI_C_Digit,11.0,4.0,105.0,1199.0,1.0,2.0,CBA
BI_C_Digit,11.0,4.0,106.0,624.0,1.0,1.0,CBA
BI_C_Digit,11.0,4.0,107.0,882.0,1.0,3.0,CBA
BI_C_Digit,11.0,4.0,108.0,419.0,1.0,1.0,ABA
BI_C_Digit,11.0,4.0,109.0,837.0,1.0,3.0,ABA
BI_C_Digit,11.0,4.0,110.0,668.0,1.0,2.0,CBA
BI_C_Digit,11.0,4.0,111.0,902.0,1.0,3.0,ABA
BI_C_Digit,11.0,4.0,112.0,366.0,1.0,1.0,CBA
BI_C_Digit,11.0,4.0,113.0,1035.0,1.0,3.0,ABA
BI_C_Digit,11.0,4.0,114.0,2161.0,1.0,1.0,ABA
BI_C_Digit,11.0,4.0,115.0,854.0,0.0,3.0,ABA
BI_C_Digit,11.0,4.0,116.0,322.0,1.0,1.0,ABA
BI_C_Digit,11.0,4.0,117.0,742.0,0.0,3.0,ABA
BI_C_Digit,11.0,4.0,118.0,397.0,1.0,1.0,ABA
BI_C_Digit,11.0,4.0,119.0,539.0,1.0,3.0,ABA
BI_C_Digit,11.0,4.0,120.0,992.0,0.0,2.0,CBA
BI_C_Digit,12.0,1.0,1.0,616.0,1.0,3.0,0.0
BI_C_Digit,12.0,1.0,2.0,817.0,1.0,2.0,0.0
BI_C_Digit,12.0,1.0,3.0,704.0,1.0,3.0,ABA
BI_C_Digit,12.0,1.0,4.0,818.0,1.0,2.0,ABA
BI_C_Digit,12.0,1.0,5.0,754.0,1.0,3.0,ABA
BI_C_Digit,12.0,1.0,6.0,1135.0,0.0,2.0,ABA
BI_C_Digit,12.0,1.0,7.0,491.0,1.0,3.0,ABA
BI_C_Digit,12.0,1.0,8.0,901.0,0.0,2.0,ABA
BI_C_Digit,12.0,1.0,9.0,625.0,1.0,1.0,CBA
BI_C_Digit,12.0,1.0,10.0,457.0,1.0,2.0,ABA
BI_C_Digit,12.0,1.0,11.0,809.0,1.0,1.0,ABA
BI_C_Digit,12.0,1.0,12.0,452.0,1.0,2.0,ABA
BI_C_Digit,12.0,1.0,13.0,571.0,1.0,1.0,ABA
BI_C_Digit,12.0,1.0,14.0,898.0,1.0,3.0,CBA
BI_C_Digit,12.0,1.0,15.0,1094.0,1.0,1.0,ABA
BI_C_Digit,12.0,1.0,16.0,1539.0,1.0,3.0,ABA
BI_C_Digit,12.0,1.0,17.0,1295.0,1.0,2.0,CBA
BI_C_Digit,12.0,1.0,18.0,501.0,1.0,1.0,CBA
BI_C_Digit,12.0,1.0,19.0,1129.0,1.0,3.0,CBA
BI_C_Digit,12.0,1.0,20.0,649.0,1.0,2.0,CBA
BI_C_Digit,12.0,1.0,21.0,678.0,1.0,1.0,CBA
BI_C_Digit,12.0,1.0,22.0,895.0,1.0,3.0,CBA
BI_C_Digit,12.0,1.0,23.0,614.0,1.0,2.0,CBA
BI_C_Digit,12.0,1.0,24.0,636.0,1.0,3.0,ABA
BI_C_Digit,12.0,1.0,25.0,577.0,1.0,2.0,ABA
BI_C_Digit,12.0,1.0,26.0,351.0,1.0,1.0,CBA
BI_C_Digit,12.0,1.0,27.0,1098.0,1.0,3.0,CBA
BI_C_Digit,12.0,1.0,28.0,515.0,1.0,2.0,CBA
BI_C_Digit,12.0,1.0,29.0,521.0,0.0,3.0,ABA
BI_C_Digit,12.0,1.0,30.0,674.0,1.0,1.0,CBA
BI_C_Digit,12.0,1.0,31.0,884.0,1.0,3.0,ABA
BI_C_Digit,12.0,1.0,32.0,528.0,1.0,1.0,ABA
BI_C_Digit,12.0,1.0,33.0,757.0,1.0,2.0,CBA
BI_C_Digit,12.0,1.0,34.0,465.0,0.0,3.0,CBA
BI_C_Digit,12.0,1.0,35.0,729.0,1.0,1.0,CBA
BI_C_Digit,12.0,1.0,36.0,445.0,1.0,2.0,CBA
BI_C_Digit,12.0,1.0,37.0,707.0,1.0,3.0,CBA
BI_C_Digit,12.0,1.0,38.0,735.0,1.0,1.0,CBA
BI_C_Digit,12.0,1.0,39.0,405.0,1.0,2.0,CBA
BI_C_Digit,12.0,1.0,40.0,903.0,1.0,1.0,ABA
BI_C_Digit,12.0,1.0,41.0,434.0,1.0,2.0,ABA
BI_C_Digit,12.0,1.0,42.0,694.0,1.0,3.0,CBA
BI_C_Digit,12.0,1.0,43.0,1214.0,1.0,1.0,CBA
BI_C_Digit,12.0,1.0,44.0,970.0,1.0,2.0,CBA
BI_C_Digit,12.0,1.0,45.0,554.0,1.0,1.0,ABA
BI_C_Digit,12.0,1.0,46.0,910.0,1.0,3.0,CBA
BI_C_Digit,12.0,1.0,47.0,894.0,1.0,1.0,ABA
BI_C_Digit,12.0,1.0,48.0,850.0,1.0,3.0,ABA
BI_C_Digit,12.0,1.0,49.0,706.0,1.0,1.0,ABA
BI_C_Digit,12.0,1.0,50.0,434.0,1.0,3.0,ABA
BI_C_Digit,12.0,1.0,51.0,1074.0,1.0,2.0,CBA
BI_C_Digit,12.0,1.0,52.0,824.0,1.0,1.0,CBA
BI_C_Digit,12.0,1.0,53.0,961.0,0.0,2.0,ABA
BI_C_Digit,12.0,1.0,54.0,673.0,1.0,3.0,CBA
BI_C_Digit,12.0,1.0,55.0,1059.0,0.0,2.0,ABA
BI_C_Digit,12.0,1.0,56.0,1010.0,1.0,1.0,CBA
BI_C_Digit,12.0,1.0,57.0,621.0,1.0,2.0,ABA
BI_C_Digit,12.0,1.0,58.0,975.0,0.0,1.0,ABA
BI_C_Digit,12.0,1.0,59.0,817.0,0.0,2.0,ABA
BI_C_Digit,12.0,1.0,60.0,704.0,1.0,1.0,ABA
BI_C_Digit,12.0,1.0,61.0,1291.0,1.0,2.0,ABA
BI_C_Digit,12.0,1.0,62.0,608.0,1.0,1.0,ABA
BI_C_Digit,12.0,1.0,63.0,887.0,1.0,3.0,CBA
BI_C_Digit,12.0,1.0,64.0,782.0,1.0,2.0,CBA
BI_C_Digit,12.0,1.0,65.0,649.0,1.0,1.0,CBA
BI_C_Digit,12.0,1.0,66.0,493.0,1.0,2.0,ABA
BI_C_Digit,12.0,1.0,67.0,638.0,1.0,1.0,ABA
BI_C_Digit,12.0,1.0,68.0,431.0,1.0,3.0,CBA
BI_C_Digit,12.0,1.0,69.0,665.0,1.0,2.0,CBA
BI_C_Digit,12.0,1.0,70.0,600.0,1.0,1.0,CBA
BI_C_Digit,12.0,1.0,71.0,1320.0,1.0,3.0,CBA
BI_C_Digit,12.0,1.0,72.0,881.0,0.0,2.0,CBA
BI_C_Digit,12.0,1.0,73.0,477.0,1.0,1.0,CBA
BI_C_Digit,12.0,1.0,74.0,805.0,1.0,2.0,ABA
BI_C_Digit,12.0,1.0,75.0,784.0,1.0,3.0,CBA
BI_C_Digit,12.0,1.0,76.0,891.0,1.0,2.0,ABA
BI_C_Digit,12.0,1.0,77.0,503.0,1.0,3.0,ABA
BI_C_Digit,12.0,1.0,78.0,535.0,1.0,2.0,ABA
BI_C_Digit,12.0,1.0,79.0,826.0,1.0,1.0,CBA
BI_C_Digit,12.0,1.0,80.0,670.0,1.0,2.0,ABA
BI_C_Digit,12.0,1.0,81.0,978.0,0.0,3.0,CBA
BI_C_Digit,12.0,1.0,82.0,431.0,1.0,2.0,ABA
BI_C_Digit,12.0,1.0,83.0,377.0,1.0,1.0,CBA
BI_C_Digit,12.0,1.0,84.0,530.0,1.0,3.0,CBA
BI_C_Digit,12.0,1.0,85.0,444.0,1.0,2.0,CBA
BI_C_Digit,12.0,1.0,86.0,551.0,0.0,1.0,CBA
BI_C_Digit,12.0,1.0,87.0,500.0,1.0,2.0,ABA
BI_C_Digit,12.0,1.0,88.0,364.0,1.0,1.0,ABA
BI_C_Digit,12.0,1.0,89.0,641.0,0.0,3.0,CBA
BI_C_Digit,12.0,1.0,90.0,696.0,0.0,1.0,ABA
BI_C_Digit,12.0,1.0,91.0,351.0,1.0,2.0,CBA
BI_C_Digit,12.0,1.0,92.0,500.0,1.0,1.0,ABA
BI_C_Digit,12.0,1.0,93.0,463.0,0.0,3.0,CBA
BI_C_Digit,12.0,1.0,94.0,388.0,1.0,2.0,CBA
BI_C_Digit,12.0,1.0,95.0,848.0,1.0,3.0,ABA
BI_C_Digit,12.0,1.0,96.0,1070.0,1.0,1.0,CBA
BI_C_Digit,12.0,1.0,97.0,557.0,0.0,3.0,ABA
BI_C_Digit,12.0,1.0,98.0,537.0,1.0,1.0,ABA
BI_C_Digit,12.0,1.0,99.0,2037.0,1.0,3.0,ABA
BI_C_Digit,12.0,1.0,100.0,843.0,1.0,1.0,ABA
BI_C_Digit,12.0,1.0,101.0,747.0,1.0,2.0,CBA
BI_C_Digit,12.0,1.0,102.0,1373.0,1.0,3.0,CBA
BI_C_Digit,12.0,1.0,103.0,523.0,1.0,1.0,CBA
BI_C_Digit,12.0,1.0,104.0,998.0,1.0,3.0,ABA
BI_C_Digit,12.0,1.0,105.0,438.0,1.0,2.0,CBA
BI_C_Digit,12.0,1.0,106.0,1016.0,1.0,3.0,ABA
BI_C_Digit,12.0,1.0,107.0,707.0,1.0,2.0,ABA
BI_C_Digit,12.0,1.0,108.0,545.0,1.0,1.0,CBA
BI_C_Digit,12.0,1.0,109.0,958.0,1.0,3.0,CBA
BI_C_Digit,12.0,1.0,110.0,985.0,1.0,1.0,ABA
BI_C_Digit,12.0,1.0,111.0,972.0,1.0,3.0,ABA
BI_C_Digit,12.0,1.0,112.0,1092.0,0.0,1.0,ABA
BI_C_Digit,12.0,1.0,113.0,1092.0,1.0,3.0,ABA
BI_C_Digit,12.0,1.0,114.0,528.0,1.0,2.0,CBA
BI_C_Digit,12.0,1.0,115.0,1233.0,1.0,1.0,CBA
BI_C_Digit,12.0,1.0,116.0,796.0,0.0,3.0,CBA
BI_C_Digit,12.0,1.0,117.0,910.0,1.0,1.0,ABA
BI_C_Digit,12.0,1.0,118.0,503.0,0.0,3.0,ABA
BI_C_Digit,12.0,1.0,119.0,1306.0,1.0,2.0,CBA
BI_C_Digit,12.0,1.0,120.0,595.0,1.0,3.0,ABA
BI_C_Digit,12.0,2.0,1.0,688.0,1.0,2.0,0.0
BI_C_Digit,12.0,2.0,2.0,560.0,1.0,1.0,0.0
BI_C_Digit,12.0,2.0,3.0,455.0,1.0,2.0,ABA
BI_C_Digit,12.0,2.0,4.0,613.0,1.0,3.0,CBA
BI_C_Digit,12.0,2.0,5.0,741.0,1.0,2.0,ABA
BI_C_Digit,12.0,2.0,6.0,662.0,1.0,1.0,CBA
BI_C_Digit,12.0,2.0,7.0,598.0,1.0,2.0,ABA
BI_C_Digit,12.0,2.0,8.0,1606.0,1.0,3.0,CBA
BI_C_Digit,12.0,2.0,9.0,432.0,1.0,1.0,CBA
BI_C_Digit,12.0,2.0,10.0,596.0,1.0,2.0,CBA
BI_C_Digit,12.0,2.0,11.0,1220.0,1.0,3.0,CBA
BI_C_Digit,12.0,2.0,12.0,2476.0,1.0,1.0,CBA
BI_C_Digit,12.0,2.0,13.0,786.0,1.0,3.0,ABA
BI_C_Digit,12.0,2.0,14.0,1025.0,1.0,2.0,CBA
BI_C_Digit,12.0,2.0,15.0,492.0,1.0,1.0,CBA
BI_C_Digit,12.0,2.0,16.0,1363.0,1.0,3.0,CBA
BI_C_Digit,12.0,2.0,17.0,691.0,1.0,1.0,ABA
BI_C_Digit,12.0,2.0,18.0,1401.0,1.0,3.0,ABA
BI_C_Digit,12.0,2.0,19.0,1439.0,1.0,1.0,ABA
BI_C_Digit,12.0,2.0,20.0,484.0,1.0,3.0,ABA
BI_C_Digit,12.0,2.0,21.0,783.0,0.0,1.0,ABA
BI_C_Digit,12.0,2.0,22.0,1195.0,1.0,3.0,ABA
BI_C_Digit,12.0,2.0,23.0,1149.0,1.0,2.0,CBA
BI_C_Digit,12.0,2.0,24.0,1004.0,1.0,1.0,CBA
BI_C_Digit,12.0,2.0,25.0,1402.0,1.0,2.0,ABA
BI_C_Digit,12.0,2.0,26.0,484.0,1.0,3.0,CBA
BI_C_Digit,12.0,2.0,27.0,317.0,1.0,2.0,ABA
BI_C_Digit,12.0,2.0,28.0,526.0,1.0,1.0,CBA
BI_C_Digit,12.0,2.0,29.0,341.0,1.0,3.0,CBA
BI_C_Digit,12.0,2.0,30.0,1049.0,1.0,1.0,ABA
BI_C_Digit,12.0,2.0,31.0,1167.0,1.0,3.0,ABA
BI_C_Digit,12.0,2.0,32.0,672.0,1.0,2.0,CBA
BI_C_Digit,12.0,2.0,33.0,1333.0,1.0,1.0,CBA
BI_C_Digit,12.0,2.0,34.0,411.0,1.0,2.0,ABA
BI_C_Digit,12.0,2.0,35.0,1140.0,0.0,3.0,CBA
BI_C_Digit,12.0,2.0,36.0,981.0,1.0,1.0,CBA
BI_C_Digit,12.0,2.0,37.0,432.0,1.0,2.0,CBA
BI_C_Digit,12.0,2.0,38.0,774.0,0.0,1.0,ABA
BI_C_Digit,12.0,2.0,39.0,480.0,0.0,3.0,CBA
BI_C_Digit,12.0,2.0,40.0,1036.0,1.0,1.0,ABA
BI_C_Digit,12.0,2.0,41.0,539.0,1.0,3.0,ABA
BI_C_Digit,12.0,2.0,42.0,2563.0,1.0,1.0,ABA
BI_C_Digit,12.0,2.0,43.0,2547.0,1.0,3.0,ABA
BI_C_Digit,12.0,2.0,44.0,776.0,1.0,1.0,ABA
BI_C_Digit,12.0,2.0,45.0,370.0,1.0,2.0,CBA
BI_C_Digit,12.0,2.0,46.0,617.0,1.0,1.0,ABA
BI_C_Digit,12.0,2.0,47.0,846.0,1.0,2.0,ABA
BI_C_Digit,12.0,2.0,48.0,1550.0,1.0,3.0,CBA
BI_C_Digit,12.0,2.0,49.0,693.0,1.0,2.0,ABA
BI_C_Digit,12.0,2.0,50.0,555.0,1.0,3.0,ABA
BI_C_Digit,12.0,2.0,51.0,980.0,0.0,1.0,CBA
BI_C_Digit,12.0,2.0,52.0,651.0,1.0,3.0,ABA
BI_C_Digit,12.0,2.0,53.0,813.0,1.0,2.0,CBA
BI_C_Digit,12.0,2.0,54.0,596.0,1.0,1.0,CBA
BI_C_Digit,12.0,2.0,55.0,576.0,0.0,2.0,ABA
BI_C_Digit,12.0,2.0,56.0,890.0,1.0,1.0,ABA
BI_C_Digit,12.0,2.0,57.0,477.0,1.0,3.0,CBA
BI_C_Digit,12.0,2.0,58.0,904.0,1.0,1.0,ABA
BI_C_Digit,12.0,2.0,59.0,1001.0,1.0,2.0,CBA
BI_C_Digit,12.0,2.0,60.0,888.0,1.0,3.0,CBA
BI_C_Digit,12.0,2.0,61.0,621.0,1.0,1.0,CBA
BI_C_Digit,12.0,2.0,62.0,731.0,1.0,3.0,ABA
BI_C_Digit,12.0,2.0,63.0,843.0,1.0,1.0,ABA
BI_C_Digit,12.0,2.0,64.0,539.0,1.0,2.0,CBA
BI_C_Digit,12.0,2.0,65.0,469.0,1.0,3.0,CBA
BI_C_Digit,12.0,2.0,66.0,1043.0,1.0,1.0,CBA
BI_C_Digit,12.0,2.0,67.0,666.0,1.0,3.0,ABA
BI_C_Digit,12.0,2.0,68.0,524.0,1.0,2.0,CBA
BI_C_Digit,12.0,2.0,69.0,950.0,1.0,1.0,CBA
BI_C_Digit,12.0,2.0,70.0,1220.0,1.0,3.0,CBA
BI_C_Digit,12.0,2.0,71.0,855.0,1.0,1.0,ABA
BI_C_Digit,12.0,2.0,72.0,986.0,1.0,2.0,CBA
BI_C_Digit,12.0,2.0,73.0,873.0,1.0,1.0,ABA
BI_C_Digit,12.0,2.0,74.0,422.0,1.0,2.0,ABA
BI_C_Digit,12.0,2.0,75.0,1051.0,1.0,3.0,CBA
BI_C_Digit,12.0,2.0,76.0,1008.0,1.0,1.0,CBA
BI_C_Digit,12.0,2.0,77.0,442.0,1.0,2.0,CBA
BI_C_Digit,12.0,2.0,78.0,584.0,1.0,1.0,ABA
BI_C_Digit,12.0,2.0,79.0,1033.0,1.0,3.0,CBA
BI_C_Digit,12.0,2.0,80.0,1844.0,1.0,2.0,CBA
BI_C_Digit,12.0,2.0,81.0,711.0,1.0,3.0,ABA
BI_C_Digit,12.0,2.0,82.0,752.0,1.0,2.0,ABA
BI_C_Digit,12.0,2.0,83.0,705.0,1.0,3.0,ABA
BI_C_Digit,12.0,2.0,84.0,797.0,1.0,2.0,ABA
BI_C_Digit,12.0,2.0,85.0,1013.0,1.0,1.0,CBA
BI_C_Digit,12.0,2.0,86.0,2128.0,1.0,2.0,ABA
BI_C_Digit,12.0,2.0,87.0,1256.0,0.0,3.0,CBA
BI_C_Digit,12.0,2.0,88.0,348.0,1.0,1.0,CBA
BI_C_Digit,12.0,2.0,89.0,504.0,1.0,3.0,ABA
BI_C_Digit,12.0,2.0,90.0,448.0,1.0,1.0,ABA
BI_C_Digit,12.0,2.0,91.0,436.0,0.0,3.0,ABA
BI_C_Digit,12.0,2.0,92.0,1096.0,1.0,1.0,ABA
BI_C_Digit,12.0,2.0,93.0,475.0,1.0,2.0,CBA
BI_C_Digit,12.0,2.0,94.0,532.0,1.0,1.0,ABA
BI_C_Digit,12.0,2.0,95.0,424.0,1.0,2.0,ABA
BI_C_Digit,12.0,2.0,96.0,510.0,0.0,3.0,CBA
BI_C_Digit,12.0,2.0,97.0,1316.0,1.0,2.0,ABA
BI_C_Digit,12.0,2.0,98.0,558.0,1.0,3.0,ABA
BI_C_Digit,12.0,2.0,99.0,1084.0,1.0,2.0,ABA
BI_C_Digit,12.0,2.0,100.0,1285.0,1.0,3.0,ABA
BI_C_Digit,12.0,2.0,101.0,1418.0,1.0,2.0,ABA
BI_C_Digit,12.0,2.0,102.0,2634.0,1.0,1.0,CBA
BI_C_Digit,12.0,2.0,103.0,733.0,1.0,3.0,CBA
BI_C_Digit,12.0,2.0,104.0,634.0,1.0,2.0,CBA
BI_C_Digit,12.0,2.0,105.0,984.0,1.0,1.0,CBA
BI_C_Digit,12.0,2.0,106.0,760.0,1.0,3.0,CBA
BI_C_Digit,12.0,2.0,107.0,799.0,1.0,2.0,CBA
BI_C_Digit,12.0,2.0,108.0,1268.0,1.0,1.0,CBA
BI_C_Digit,12.0,2.0,109.0,1166.0,1.0,2.0,ABA
BI_C_Digit,12.0,2.0,110.0,1296.0,1.0,3.0,CBA
BI_C_Digit,12.0,2.0,111.0,775.0,1.0,2.0,ABA
BI_C_Digit,12.0,2.0,112.0,443.0,1.0,1.0,CBA
BI_C_Digit,12.0,2.0,113.0,456.0,1.0,3.0,CBA
BI_C_Digit,12.0,2.0,114.0,549.0,1.0,2.0,CBA
BI_C_Digit,12.0,2.0,115.0,1177.0,1.0,1.0,CBA
BI_C_Digit,12.0,2.0,116.0,979.0,1.0,2.0,ABA
BI_C_Digit,12.0,2.0,117.0,609.0,1.0,3.0,CBA
BI_C_Digit,12.0,2.0,118.0,686.0,1.0,2.0,ABA
BI_C_Digit,12.0,2.0,119.0,926.0,0.0,3.0,ABA
BI_C_Digit,12.0,2.0,120.0,1431.0,1.0,2.0,ABA
BI_C_Digit,12.0,3.0,1.0,1044.0,1.0,3.0,0.0
BI_C_Digit,12.0,3.0,2.0,402.0,1.0,2.0,0.0
BI_C_Digit,12.0,3.0,3.0,567.0,1.0,3.0,ABA
BI_C_Digit,12.0,3.0,4.0,394.0,1.0,2.0,ABA
BI_C_Digit,12.0,3.0,5.0,391.0,0.0,3.0,ABA
BI_C_Digit,12.0,3.0,6.0,1184.0,1.0,1.0,CBA
BI_C_Digit,12.0,3.0,7.0,428.0,1.0,2.0,CBA
BI_C_Digit,12.0,3.0,8.0,345.0,1.0,1.0,ABA
BI_C_Digit,12.0,3.0,9.0,456.0,1.0,2.0,ABA
BI_C_Digit,12.0,3.0,10.0,942.0,1.0,1.0,ABA
BI_C_Digit,12.0,3.0,11.0,658.0,1.0,2.0,ABA
BI_C_Digit,12.0,3.0,12.0,575.0,1.0,3.0,CBA
BI_C_Digit,12.0,3.0,13.0,1191.0,1.0,2.0,ABA
BI_C_Digit,12.0,3.0,14.0,1006.0,0.0,3.0,ABA
BI_C_Digit,12.0,3.0,15.0,575.0,1.0,1.0,CBA
BI_C_Digit,12.0,3.0,16.0,3945.0,1.0,3.0,ABA
BI_C_Digit,12.0,3.0,17.0,848.0,1.0,1.0,ABA
BI_C_Digit,12.0,3.0,18.0,1485.0,1.0,3.0,ABA
BI_C_Digit,12.0,3.0,19.0,652.0,1.0,1.0,ABA
BI_C_Digit,12.0,3.0,20.0,1177.0,1.0,3.0,ABA
BI_C_Digit,12.0,3.0,21.0,688.0,1.0,2.0,CBA
BI_C_Digit,12.0,3.0,22.0,619.0,1.0,1.0,CBA
BI_C_Digit,12.0,3.0,23.0,714.0,1.0,3.0,CBA
BI_C_Digit,12.0,3.0,24.0,765.0,1.0,2.0,CBA
BI_C_Digit,12.0,3.0,25.0,1340.0,1.0,3.0,ABA
BI_C_Digit,12.0,3.0,26.0,722.0,1.0,1.0,CBA
BI_C_Digit,12.0,3.0,27.0,1059.0,1.0,2.0,CBA
BI_C_Digit,12.0,3.0,28.0,864.0,1.0,1.0,ABA
BI_C_Digit,12.0,3.0,29.0,2770.0,0.0,3.0,CBA
BI_C_Digit,12.0,3.0,30.0,819.0,1.0,1.0,ABA
BI_C_Digit,12.0,3.0,31.0,1434.0,1.0,2.0,CBA
BI_C_Digit,12.0,3.0,32.0,504.0,1.0,1.0,ABA
BI_C_Digit,12.0,3.0,33.0,649.0,1.0,2.0,ABA
BI_C_Digit,12.0,3.0,34.0,480.0,1.0,3.0,CBA
BI_C_Digit,12.0,3.0,35.0,882.0,1.0,2.0,ABA
BI_C_Digit,12.0,3.0,36.0,782.0,1.0,1.0,CBA
BI_C_Digit,12.0,3.0,37.0,459.0,1.0,2.0,ABA
BI_C_Digit,12.0,3.0,38.0,536.0,1.0,3.0,CBA
BI_C_Digit,12.0,3.0,39.0,469.0,1.0,1.0,CBA
BI_C_Digit,12.0,3.0,40.0,627.0,1.0,2.0,CBA
BI_C_Digit,12.0,3.0,41.0,914.0,1.0,3.0,CBA
BI_C_Digit,12.0,3.0,42.0,1089.0,0.0,1.0,CBA
BI_C_Digit,12.0,3.0,43.0,810.0,0.0,3.0,ABA
BI_C_Digit,12.0,3.0,44.0,562.0,1.0,1.0,ABA
BI_C_Digit,12.0,3.0,45.0,647.0,0.0,2.0,CBA
BI_C_Digit,12.0,3.0,46.0,418.0,1.0,1.0,ABA
BI_C_Digit,12.0,3.0,47.0,390.0,0.0,3.0,CBA
BI_C_Digit,12.0,3.0,48.0,393.0,0.0,2.0,CBA
BI_C_Digit,12.0,3.0,49.0,807.0,1.0,1.0,CBA
BI_C_Digit,12.0,3.0,50.0,1098.0,1.0,3.0,CBA
BI_C_Digit,12.0,3.0,51.0,368.0,1.0,2.0,CBA
BI_C_Digit,12.0,3.0,52.0,734.0,1.0,3.0,ABA
BI_C_Digit,12.0,3.0,53.0,923.0,1.0,1.0,CBA
BI_C_Digit,12.0,3.0,54.0,498.0,1.0,2.0,CBA
BI_C_Digit,12.0,3.0,55.0,588.0,1.0,3.0,CBA
BI_C_Digit,12.0,3.0,56.0,1943.0,1.0,2.0,ABA
BI_C_Digit,12.0,3.0,57.0,654.0,1.0,1.0,CBA
BI_C_Digit,12.0,3.0,58.0,717.0,1.0,2.0,ABA
BI_C_Digit,12.0,3.0,59.0,1288.0,1.0,3.0,CBA
BI_C_Digit,12.0,3.0,60.0,782.0,1.0,1.0,CBA
BI_C_Digit,12.0,3.0,61.0,1568.0,1.0,2.0,CBA
BI_C_Digit,12.0,3.0,62.0,708.0,1.0,1.0,ABA
BI_C_Digit,12.0,3.0,63.0,1116.0,1.0,2.0,ABA
BI_C_Digit,12.0,3.0,64.0,840.0,1.0,3.0,CBA
BI_C_Digit,12.0,3.0,65.0,1364.0,1.0,2.0,ABA
BI_C_Digit,12.0,3.0,66.0,1546.0,1.0,3.0,ABA
BI_C_Digit,12.0,3.0,67.0,424.0,1.0,1.0,CBA
BI_C_Digit,12.0,3.0,68.0,884.0,1.0,2.0,CBA
BI_C_Digit,12.0,3.0,69.0,709.0,1.0,3.0,CBA
BI_C_Digit,12.0,3.0,70.0,942.0,1.0,1.0,CBA
BI_C_Digit,12.0,3.0,71.0,454.0,1.0,2.0,CBA
BI_C_Digit,12.0,3.0,72.0,461.0,1.0,1.0,ABA
BI_C_Digit,12.0,3.0,73.0,521.0,1.0,2.0,ABA
BI_C_Digit,12.0,3.0,74.0,533.0,1.0,1.0,ABA
BI_C_Digit,12.0,3.0,75.0,703.0,0.0,3.0,CBA
BI_C_Digit,12.0,3.0,76.0,444.0,1.0,1.0,ABA
BI_C_Digit,12.0,3.0,77.0,449.0,1.0,2.0,CBA
BI_C_Digit,12.0,3.0,78.0,525.0,1.0,3.0,CBA
BI_C_Digit,12.0,3.0,79.0,1014.0,1.0,2.0,ABA
BI_C_Digit,12.0,3.0,80.0,1001.0,1.0,1.0,CBA
BI_C_Digit,12.0,3.0,81.0,2003.0,1.0,2.0,ABA
BI_C_Digit,12.0,3.0,82.0,2179.0,0.0,1.0,ABA
BI_C_Digit,12.0,3.0,83.0,696.0,1.0,2.0,ABA
BI_C_Digit,12.0,3.0,84.0,484.0,1.0,3.0,CBA
BI_C_Digit,12.0,3.0,85.0,969.0,1.0,2.0,ABA
BI_C_Digit,12.0,3.0,86.0,492.0,1.0,3.0,ABA
BI_C_Digit,12.0,3.0,87.0,1373.0,1.0,2.0,ABA
BI_C_Digit,12.0,3.0,88.0,1753.0,1.0,1.0,CBA
BI_C_Digit,12.0,3.0,89.0,474.0,1.0,2.0,ABA
BI_C_Digit,12.0,3.0,90.0,1266.0,1.0,3.0,CBA
BI_C_Digit,12.0,3.0,91.0,791.0,1.0,1.0,CBA
BI_C_Digit,12.0,3.0,92.0,1477.0,1.0,3.0,ABA
BI_C_Digit,12.0,3.0,93.0,1293.0,1.0,1.0,ABA
BI_C_Digit,12.0,3.0,94.0,1241.0,1.0,3.0,ABA
BI_C_Digit,12.0,3.0,95.0,1421.0,1.0,2.0,CBA
BI_C_Digit,12.0,3.0,96.0,504.0,1.0,1.0,CBA
BI_C_Digit,12.0,3.0,97.0,770.0,1.0,2.0,ABA
BI_C_Digit,12.0,3.0,98.0,445.0,1.0,3.0,CBA
BI_C_Digit,12.0,3.0,99.0,506.0,1.0,2.0,ABA
BI_C_Digit,12.0,3.0,100.0,665.0,1.0,3.0,ABA
BI_C_Digit,12.0,3.0,101.0,1756.0,1.0,1.0,CBA
BI_C_Digit,12.0,3.0,102.0,921.0,1.0,2.0,CBA
BI_C_Digit,12.0,3.0,103.0,745.0,1.0,1.0,ABA
BI_C_Digit,12.0,3.0,104.0,521.0,1.0,3.0,CBA
BI_C_Digit,12.0,3.0,105.0,1082.0,1.0,2.0,CBA
BI_C_Digit,12.0,3.0,106.0,811.0,1.0,1.0,CBA
BI_C_Digit,12.0,3.0,107.0,743.0,1.0,3.0,CBA
BI_C_Digit,12.0,3.0,108.0,575.0,1.0,1.0,ABA
BI_C_Digit,12.0,3.0,109.0,649.0,1.0,3.0,ABA
BI_C_Digit,12.0,3.0,110.0,364.0,1.0,2.0,CBA
BI_C_Digit,12.0,3.0,111.0,488.0,1.0,3.0,ABA
BI_C_Digit,12.0,3.0,112.0,686.0,1.0,1.0,CBA
BI_C_Digit,12.0,3.0,113.0,691.0,1.0,3.0,ABA
BI_C_Digit,12.0,3.0,114.0,542.0,1.0,1.0,ABA
BI_C_Digit,12.0,3.0,115.0,519.0,0.0,3.0,ABA
BI_C_Digit,12.0,3.0,116.0,464.0,0.0,1.0,ABA
BI_C_Digit,12.0,3.0,117.0,504.0,1.0,3.0,ABA
BI_C_Digit,12.0,3.0,118.0,817.0,1.0,1.0,ABA
BI_C_Digit,12.0,3.0,119.0,440.0,1.0,3.0,ABA
BI_C_Digit,12.0,3.0,120.0,388.0,1.0,2.0,CBA
BI_C_Digit,12.0,4.0,1.0,456.0,1.0,3.0,0.0
BI_C_Digit,12.0,4.0,2.0,383.0,1.0,2.0,0.0
BI_C_Digit,12.0,4.0,3.0,329.0,1.0,3.0,ABA
BI_C_Digit,12.0,4.0,4.0,363.0,1.0,1.0,CBA
BI_C_Digit,12.0,4.0,5.0,622.0,1.0,3.0,ABA
BI_C_Digit,12.0,4.0,6.0,552.0,1.0,2.0,CBA
BI_C_Digit,12.0,4.0,7.0,623.0,1.0,1.0,CBA
BI_C_Digit,12.0,4.0,8.0,422.0,1.0,3.0,CBA
BI_C_Digit,12.0,4.0,9.0,2276.0,1.0,1.0,ABA
BI_C_Digit,12.0,4.0,10.0,590.0,1.0,3.0,ABA
BI_C_Digit,12.0,4.0,11.0,403.0,1.0,2.0,CBA
BI_C_Digit,12.0,4.0,12.0,419.0,1.0,1.0,CBA
BI_C_Digit,12.0,4.0,13.0,563.0,1.0,3.0,CBA
BI_C_Digit,12.0,4.0,14.0,533.0,1.0,2.0,CBA
BI_C_Digit,12.0,4.0,15.0,427.0,1.0,3.0,ABA
BI_C_Digit,12.0,4.0,16.0,441.0,1.0,1.0,CBA
BI_C_Digit,12.0,4.0,17.0,604.0,1.0,3.0,ABA
BI_C_Digit,12.0,4.0,18.0,407.0,1.0,1.0,ABA
BI_C_Digit,12.0,4.0,19.0,680.0,1.0,2.0,CBA
BI_C_Digit,12.0,4.0,20.0,493.0,1.0,3.0,CBA
BI_C_Digit,12.0,4.0,21.0,1057.0,1.0,1.0,CBA
BI_C_Digit,12.0,4.0,22.0,592.0,1.0,3.0,ABA
BI_C_Digit,12.0,4.0,23.0,677.0,1.0,1.0,ABA
BI_C_Digit,12.0,4.0,24.0,539.0,1.0,2.0,CBA
BI_C_Digit,12.0,4.0,25.0,459.0,1.0,1.0,ABA
BI_C_Digit,12.0,4.0,26.0,541.0,1.0,2.0,ABA
BI_C_Digit,12.0,4.0,27.0,586.0,1.0,3.0,CBA
BI_C_Digit,12.0,4.0,28.0,440.0,1.0,1.0,CBA
BI_C_Digit,12.0,4.0,29.0,458.0,1.0,3.0,ABA
BI_C_Digit,12.0,4.0,30.0,413.0,1.0,2.0,CBA
BI_C_Digit,12.0,4.0,31.0,579.0,1.0,1.0,CBA
BI_C_Digit,12.0,4.0,32.0,631.0,1.0,2.0,ABA
BI_C_Digit,12.0,4.0,33.0,600.0,1.0,3.0,CBA
BI_C_Digit,12.0,4.0,34.0,404.0,1.0,1.0,CBA
BI_C_Digit,12.0,4.0,35.0,1090.0,0.0,3.0,ABA
BI_C_Digit,12.0,4.0,36.0,1637.0,0.0,2.0,CBA
BI_C_Digit,12.0,4.0,37.0,1065.0,1.0,1.0,CBA
BI_C_Digit,12.0,4.0,38.0,683.0,1.0,2.0,ABA
BI_C_Digit,12.0,4.0,39.0,538.0,1.0,3.0,CBA
BI_C_Digit,12.0,4.0,40.0,436.0,1.0,2.0,ABA
BI_C_Digit,12.0,4.0,41.0,422.0,1.0,1.0,CBA
BI_C_Digit,12.0,4.0,42.0,812.0,1.0,2.0,ABA
BI_C_Digit,12.0,4.0,43.0,1307.0,1.0,1.0,ABA
BI_C_Digit,12.0,4.0,44.0,542.0,1.0,3.0,CBA
BI_C_Digit,12.0,4.0,45.0,874.0,1.0,2.0,CBA
BI_C_Digit,12.0,4.0,46.0,480.0,1.0,1.0,CBA
BI_C_Digit,12.0,4.0,47.0,792.0,1.0,2.0,ABA
BI_C_Digit,12.0,4.0,48.0,452.0,0.0,3.0,CBA
BI_C_Digit,12.0,4.0,49.0,674.0,1.0,2.0,ABA
BI_C_Digit,12.0,4.0,50.0,508.0,0.0,3.0,ABA
BI_C_Digit,12.0,4.0,51.0,761.0,1.0,2.0,ABA
BI_C_Digit,12.0,4.0,52.0,895.0,1.0,1.0,CBA
BI_C_Digit,12.0,4.0,53.0,1821.0,1.0,3.0,CBA
BI_C_Digit,12.0,4.0,54.0,386.0,1.0,2.0,CBA
BI_C_Digit,12.0,4.0,55.0,452.0,1.0,3.0,ABA
BI_C_Digit,12.0,4.0,56.0,1312.0,1.0,2.0,ABA
BI_C_Digit,12.0,4.0,57.0,975.0,1.0,3.0,ABA
BI_C_Digit,12.0,4.0,58.0,1081.0,1.0,2.0,ABA
BI_C_Digit,12.0,4.0,59.0,644.0,1.0,3.0,ABA
BI_C_Digit,12.0,4.0,60.0,1106.0,1.0,2.0,ABA
BI_C_Digit,12.0,4.0,61.0,3150.0,1.0,3.0,ABA
BI_C_Digit,12.0,4.0,62.0,1591.0,1.0,1.0,CBA
BI_C_Digit,12.0,4.0,63.0,845.0,0.0,3.0,ABA
BI_C_Digit,12.0,4.0,64.0,460.0,1.0,1.0,ABA
BI_C_Digit,12.0,4.0,65.0,389.0,1.0,2.0,CBA
BI_C_Digit,12.0,4.0,66.0,348.0,1.0,1.0,ABA
BI_C_Digit,12.0,4.0,67.0,386.0,1.0,2.0,ABA
BI_C_Digit,12.0,4.0,68.0,574.0,1.0,3.0,CBA
BI_C_Digit,12.0,4.0,69.0,470.0,0.0,1.0,CBA
BI_C_Digit,12.0,4.0,70.0,537.0,1.0,2.0,CBA
BI_C_Digit,12.0,4.0,71.0,601.0,0.0,3.0,CBA
BI_C_Digit,12.0,4.0,72.0,613.0,1.0,2.0,ABA
BI_C_Digit,12.0,4.0,73.0,564.0,0.0,3.0,ABA
BI_C_Digit,12.0,4.0,74.0,487.0,1.0,1.0,CBA
BI_C_Digit,12.0,4.0,75.0,826.0,1.0,2.0,CBA
BI_C_Digit,12.0,4.0,76.0,1011.0,1.0,1.0,ABA
BI_C_Digit,12.0,4.0,77.0,4173.0,1.0,2.0,ABA
BI_C_Digit,12.0,4.0,78.0,546.0,0.0,3.0,CBA
BI_C_Digit,12.0,4.0,79.0,340.0,1.0,1.0,CBA
BI_C_Digit,12.0,4.0,80.0,370.0,1.0,2.0,CBA
BI_C_Digit,12.0,4.0,81.0,442.0,1.0,1.0,ABA
BI_C_Digit,12.0,4.0,82.0,579.0,1.0,3.0,CBA
BI_C_Digit,12.0,4.0,83.0,558.0,0.0,2.0,CBA
BI_C_Digit,12.0,4.0,84.0,1878.0,1.0,1.0,CBA
BI_C_Digit,12.0,4.0,85.0,790.0,1.0,3.0,CBA
BI_C_Digit,12.0,4.0,86.0,1151.0,1.0,1.0,ABA
BI_C_Digit,12.0,4.0,87.0,593.0,1.0,3.0,ABA
BI_C_Digit,12.0,4.0,88.0,766.0,1.0,1.0,ABA
BI_C_Digit,12.0,4.0,89.0,550.0,1.0,3.0,ABA
BI_C_Digit,12.0,4.0,90.0,916.0,1.0,2.0,CBA
BI_C_Digit,12.0,4.0,91.0,881.0,1.0,3.0,ABA
BI_C_Digit,12.0,4.0,92.0,740.0,1.0,2.0,ABA
BI_C_Digit,12.0,4.0,93.0,693.0,1.0,1.0,CBA
BI_C_Digit,12.0,4.0,94.0,423.0,1.0,3.0,CBA
BI_C_Digit,12.0,4.0,95.0,814.0,1.0,2.0,CBA
BI_C_Digit,12.0,4.0,96.0,485.0,1.0,3.0,ABA
BI_C_Digit,12.0,4.0,97.0,465.0,1.0,1.0,CBA
BI_C_Digit,12.0,4.0,98.0,1427.0,1.0,2.0,CBA
BI_C_Digit,12.0,4.0,99.0,490.0,1.0,1.0,ABA
BI_C_Digit,12.0,4.0,100.0,421.0,1.0,3.0,CBA
BI_C_Digit,12.0,4.0,101.0,465.0,1.0,1.0,ABA
BI_C_Digit,12.0,4.0,102.0,716.0,1.0,3.0,ABA
BI_C_Digit,12.0,4.0,103.0,876.0,1.0,2.0,CBA
BI_C_Digit,12.0,4.0,104.0,688.0,1.0,1.0,CBA
BI_C_Digit,12.0,4.0,105.0,1031.0,1.0,2.0,ABA
BI_C_Digit,12.0,4.0,106.0,924.0,1.0,1.0,ABA
BI_C_Digit,12.0,4.0,107.0,514.0,0.0,3.0,CBA
BI_C_Digit,12.0,4.0,108.0,1017.0,1.0,1.0,ABA
BI_C_Digit,12.0,4.0,109.0,637.0,1.0,3.0,ABA
BI_C_Digit,12.0,4.0,110.0,1353.0,1.0,2.0,CBA
BI_C_Digit,12.0,4.0,111.0,1011.0,1.0,1.0,CBA
BI_C_Digit,12.0,4.0,112.0,1043.0,1.0,3.0,CBA
BI_C_Digit,12.0,4.0,113.0,581.0,1.0,1.0,ABA
BI_C_Digit,12.0,4.0,114.0,694.0,1.0,2.0,CBA
BI_C_Digit,12.0,4.0,115.0,374.0,1.0,1.0,ABA
BI_C_Digit,12.0,4.0,116.0,779.0,1.0,2.0,ABA
BI_C_Digit,12.0,4.0,117.0,647.0,1.0,1.0,ABA
BI_C_Digit,12.0,4.0,118.0,363.0,1.0,2.0,ABA
BI_C_Digit,12.0,4.0,119.0,666.0,1.0,1.0,ABA
BI_C_Digit,12.0,4.0,120.0,624.0,1.0,2.0,ABA
BI_C_Digit,13.0,1.0,1.0,1517.0,1.0,2.0,0.0
BI_C_Digit,13.0,1.0,2.0,931.0,1.0,1.0,0.0
BI_C_Digit,13.0,1.0,3.0,735.0,1.0,2.0,ABA
BI_C_Digit,13.0,1.0,4.0,1140.0,1.0,3.0,CBA
BI_C_Digit,13.0,1.0,5.0,1135.0,1.0,2.0,ABA
BI_C_Digit,13.0,1.0,6.0,546.0,1.0,1.0,CBA
BI_C_Digit,13.0,1.0,7.0,1391.0,1.0,2.0,ABA
BI_C_Digit,13.0,1.0,8.0,1641.0,1.0,3.0,CBA
BI_C_Digit,13.0,1.0,9.0,1589.0,1.0,1.0,CBA
BI_C_Digit,13.0,1.0,10.0,788.0,1.0,2.0,CBA
BI_C_Digit,13.0,1.0,11.0,1743.0,1.0,3.0,CBA
BI_C_Digit,13.0,1.0,12.0,1558.0,1.0,1.0,CBA
BI_C_Digit,13.0,1.0,13.0,1756.0,1.0,3.0,ABA
BI_C_Digit,13.0,1.0,14.0,1588.0,1.0,2.0,CBA
BI_C_Digit,13.0,1.0,15.0,439.0,1.0,1.0,CBA
BI_C_Digit,13.0,1.0,16.0,1697.0,1.0,3.0,CBA
BI_C_Digit,13.0,1.0,17.0,1148.0,1.0,1.0,ABA
BI_C_Digit,13.0,1.0,18.0,551.0,1.0,3.0,ABA
BI_C_Digit,13.0,1.0,19.0,1161.0,1.0,1.0,ABA
BI_C_Digit,13.0,1.0,20.0,1416.0,1.0,3.0,ABA
BI_C_Digit,13.0,1.0,21.0,1191.0,1.0,1.0,ABA
BI_C_Digit,13.0,1.0,22.0,1639.0,1.0,3.0,ABA
BI_C_Digit,13.0,1.0,23.0,1512.0,1.0,2.0,CBA
BI_C_Digit,13.0,1.0,24.0,765.0,1.0,1.0,CBA
BI_C_Digit,13.0,1.0,25.0,1404.0,1.0,2.0,ABA
BI_C_Digit,13.0,1.0,26.0,1628.0,1.0,3.0,CBA
BI_C_Digit,13.0,1.0,27.0,649.0,1.0,2.0,ABA
BI_C_Digit,13.0,1.0,28.0,1427.0,1.0,1.0,CBA
BI_C_Digit,13.0,1.0,29.0,990.0,1.0,3.0,CBA
BI_C_Digit,13.0,1.0,30.0,1663.0,1.0,1.0,ABA
BI_C_Digit,13.0,1.0,31.0,1448.0,1.0,3.0,ABA
BI_C_Digit,13.0,1.0,32.0,942.0,1.0,2.0,CBA
BI_C_Digit,13.0,1.0,33.0,1038.0,1.0,1.0,CBA
BI_C_Digit,13.0,1.0,34.0,1331.0,1.0,2.0,ABA
BI_C_Digit,13.0,1.0,35.0,1798.0,1.0,3.0,CBA
BI_C_Digit,13.0,1.0,36.0,1296.0,1.0,1.0,CBA
BI_C_Digit,13.0,1.0,37.0,685.0,1.0,2.0,CBA
BI_C_Digit,13.0,1.0,38.0,787.0,1.0,1.0,ABA
BI_C_Digit,13.0,1.0,39.0,913.0,1.0,3.0,CBA
BI_C_Digit,13.0,1.0,40.0,1785.0,1.0,1.0,ABA
BI_C_Digit,13.0,1.0,41.0,1263.0,1.0,3.0,ABA
BI_C_Digit,13.0,1.0,42.0,838.0,1.0,1.0,ABA
BI_C_Digit,13.0,1.0,43.0,1681.0,1.0,3.0,ABA
BI_C_Digit,13.0,1.0,44.0,1374.0,1.0,1.0,ABA
BI_C_Digit,13.0,1.0,45.0,906.0,1.0,2.0,CBA
BI_C_Digit,13.0,1.0,46.0,637.0,1.0,1.0,ABA
BI_C_Digit,13.0,1.0,47.0,1054.0,1.0,2.0,ABA
BI_C_Digit,13.0,1.0,48.0,2354.0,1.0,3.0,CBA
BI_C_Digit,13.0,1.0,49.0,1175.0,1.0,2.0,ABA
BI_C_Digit,13.0,1.0,50.0,2000.0,1.0,3.0,ABA
BI_C_Digit,13.0,1.0,51.0,537.0,1.0,1.0,CBA
BI_C_Digit,13.0,1.0,52.0,848.0,1.0,3.0,ABA
BI_C_Digit,13.0,1.0,53.0,684.0,1.0,2.0,CBA
BI_C_Digit,13.0,1.0,54.0,1154.0,1.0,1.0,CBA
BI_C_Digit,13.0,1.0,55.0,1192.0,1.0,2.0,ABA
BI_C_Digit,13.0,1.0,56.0,789.0,1.0,1.0,ABA
BI_C_Digit,13.0,1.0,57.0,672.0,1.0,3.0,CBA
BI_C_Digit,13.0,1.0,58.0,1474.0,1.0,1.0,ABA
BI_C_Digit,13.0,1.0,59.0,1195.0,1.0,2.0,CBA
BI_C_Digit,13.0,1.0,60.0,779.0,1.0,3.0,CBA
BI_C_Digit,13.0,1.0,61.0,1440.0,1.0,1.0,CBA
BI_C_Digit,13.0,1.0,62.0,1377.0,1.0,3.0,ABA
BI_C_Digit,13.0,1.0,63.0,516.0,1.0,1.0,ABA
BI_C_Digit,13.0,1.0,64.0,1014.0,1.0,2.0,CBA
BI_C_Digit,13.0,1.0,65.0,2442.0,1.0,3.0,CBA
BI_C_Digit,13.0,1.0,66.0,1519.0,1.0,1.0,CBA
BI_C_Digit,13.0,1.0,67.0,1805.0,1.0,3.0,ABA
BI_C_Digit,13.0,1.0,68.0,675.0,1.0,2.0,CBA
BI_C_Digit,13.0,1.0,69.0,778.0,1.0,1.0,CBA
BI_C_Digit,13.0,1.0,70.0,734.0,1.0,3.0,CBA
BI_C_Digit,13.0,1.0,71.0,429.0,1.0,1.0,ABA
BI_C_Digit,13.0,1.0,72.0,668.0,1.0,2.0,CBA
BI_C_Digit,13.0,1.0,73.0,649.0,1.0,1.0,ABA
BI_C_Digit,13.0,1.0,74.0,2174.0,1.0,2.0,ABA
BI_C_Digit,13.0,1.0,75.0,899.0,1.0,3.0,CBA
BI_C_Digit,13.0,1.0,76.0,490.0,1.0,1.0,CBA
BI_C_Digit,13.0,1.0,77.0,909.0,1.0,2.0,CBA
BI_C_Digit,13.0,1.0,78.0,656.0,1.0,1.0,ABA
BI_C_Digit,13.0,1.0,79.0,1154.0,1.0,3.0,CBA
BI_C_Digit,13.0,1.0,80.0,1481.0,1.0,2.0,CBA
BI_C_Digit,13.0,1.0,81.0,1944.0,0.0,3.0,ABA
BI_C_Digit,13.0,1.0,82.0,1908.0,0.0,2.0,ABA
BI_C_Digit,13.0,1.0,83.0,570.0,1.0,3.0,ABA
BI_C_Digit,13.0,1.0,84.0,1336.0,1.0,2.0,ABA
BI_C_Digit,13.0,1.0,85.0,804.0,1.0,1.0,CBA
BI_C_Digit,13.0,1.0,86.0,1577.0,1.0,2.0,ABA
BI_C_Digit,13.0,1.0,87.0,1358.0,1.0,3.0,CBA
BI_C_Digit,13.0,1.0,88.0,1669.0,1.0,1.0,CBA
BI_C_Digit,13.0,1.0,89.0,1629.0,1.0,3.0,ABA
BI_C_Digit,13.0,1.0,90.0,553.0,1.0,1.0,ABA
BI_C_Digit,13.0,1.0,91.0,1822.0,1.0,3.0,ABA
BI_C_Digit,13.0,1.0,92.0,1208.0,1.0,1.0,ABA
BI_C_Digit,13.0,1.0,93.0,1310.0,1.0,2.0,CBA
BI_C_Digit,13.0,1.0,94.0,708.0,1.0,1.0,ABA
BI_C_Digit,13.0,1.0,95.0,1590.0,1.0,2.0,ABA
BI_C_Digit,13.0,1.0,96.0,1536.0,1.0,3.0,CBA
BI_C_Digit,13.0,1.0,97.0,1455.0,1.0,2.0,ABA
BI_C_Digit,13.0,1.0,98.0,2005.0,1.0,3.0,ABA
BI_C_Digit,13.0,1.0,99.0,1129.0,1.0,2.0,ABA
BI_C_Digit,13.0,1.0,100.0,2010.0,1.0,3.0,ABA
BI_C_Digit,13.0,1.0,101.0,635.0,1.0,2.0,ABA
BI_C_Digit,13.0,1.0,102.0,1187.0,1.0,1.0,CBA
BI_C_Digit,13.0,1.0,103.0,653.0,1.0,3.0,CBA
BI_C_Digit,13.0,1.0,104.0,720.0,1.0,2.0,CBA
BI_C_Digit,13.0,1.0,105.0,667.0,1.0,1.0,CBA
BI_C_Digit,13.0,1.0,106.0,624.0,1.0,3.0,CBA
BI_C_Digit,13.0,1.0,107.0,658.0,0.0,2.0,CBA
BI_C_Digit,13.0,1.0,108.0,1582.0,1.0,1.0,CBA
BI_C_Digit,13.0,1.0,109.0,1155.0,1.0,2.0,ABA
BI_C_Digit,13.0,1.0,110.0,2607.0,1.0,3.0,CBA
BI_C_Digit,13.0,1.0,111.0,652.0,1.0,2.0,ABA
BI_C_Digit,13.0,1.0,112.0,1907.0,1.0,1.0,CBA
BI_C_Digit,13.0,1.0,113.0,1254.0,1.0,3.0,CBA
BI_C_Digit,13.0,1.0,114.0,1133.0,0.0,2.0,CBA
BI_C_Digit,13.0,1.0,115.0,1478.0,1.0,1.0,CBA
BI_C_Digit,13.0,1.0,116.0,1085.0,1.0,2.0,ABA
BI_C_Digit,13.0,1.0,117.0,1554.0,0.0,3.0,CBA
BI_C_Digit,13.0,1.0,118.0,1054.0,1.0,2.0,ABA
BI_C_Digit,13.0,1.0,119.0,685.0,1.0,3.0,ABA
BI_C_Digit,13.0,1.0,120.0,623.0,1.0,2.0,ABA
BI_C_Digit,13.0,2.0,1.0,1138.0,1.0,3.0,0.0
BI_C_Digit,13.0,2.0,2.0,1774.0,1.0,2.0,0.0
BI_C_Digit,13.0,2.0,3.0,584.0,1.0,3.0,ABA
BI_C_Digit,13.0,2.0,4.0,474.0,1.0,2.0,ABA
BI_C_Digit,13.0,2.0,5.0,1839.0,0.0,3.0,ABA
BI_C_Digit,13.0,2.0,6.0,962.0,1.0,1.0,CBA
BI_C_Digit,13.0,2.0,7.0,997.0,1.0,2.0,CBA
BI_C_Digit,13.0,2.0,8.0,812.0,1.0,1.0,ABA
BI_C_Digit,13.0,2.0,9.0,1367.0,1.0,2.0,ABA
BI_C_Digit,13.0,2.0,10.0,439.0,1.0,1.0,ABA
BI_C_Digit,13.0,2.0,11.0,1360.0,1.0,2.0,ABA
BI_C_Digit,13.0,2.0,12.0,1763.0,1.0,3.0,CBA
BI_C_Digit,13.0,2.0,13.0,779.0,1.0,2.0,ABA
BI_C_Digit,13.0,2.0,14.0,1565.0,1.0,3.0,ABA
BI_C_Digit,13.0,2.0,15.0,1035.0,1.0,1.0,CBA
BI_C_Digit,13.0,2.0,16.0,1228.0,1.0,3.0,ABA
BI_C_Digit,13.0,2.0,17.0,1145.0,1.0,1.0,ABA
BI_C_Digit,13.0,2.0,18.0,897.0,1.0,3.0,ABA
BI_C_Digit,13.0,2.0,19.0,557.0,1.0,1.0,ABA
BI_C_Digit,13.0,2.0,20.0,2518.0,1.0,3.0,ABA
BI_C_Digit,13.0,2.0,21.0,1957.0,1.0,2.0,CBA
BI_C_Digit,13.0,2.0,22.0,2804.0,1.0,1.0,CBA
BI_C_Digit,13.0,2.0,23.0,671.0,1.0,3.0,CBA
BI_C_Digit,13.0,2.0,24.0,681.0,1.0,2.0,CBA
BI_C_Digit,13.0,2.0,25.0,605.0,1.0,3.0,ABA
BI_C_Digit,13.0,2.0,26.0,1014.0,1.0,1.0,CBA
BI_C_Digit,13.0,2.0,27.0,1260.0,0.0,2.0,CBA
BI_C_Digit,13.0,2.0,28.0,731.0,1.0,1.0,ABA
BI_C_Digit,13.0,2.0,29.0,1618.0,1.0,3.0,CBA
BI_C_Digit,13.0,2.0,30.0,2279.0,1.0,1.0,ABA
BI_C_Digit,13.0,2.0,31.0,2157.0,1.0,2.0,CBA
BI_C_Digit,13.0,2.0,32.0,1423.0,1.0,1.0,ABA
BI_C_Digit,13.0,2.0,33.0,1605.0,1.0,2.0,ABA
BI_C_Digit,13.0,2.0,34.0,1861.0,1.0,3.0,CBA
BI_C_Digit,13.0,2.0,35.0,1738.0,1.0,2.0,ABA
BI_C_Digit,13.0,2.0,36.0,1885.0,1.0,1.0,CBA
BI_C_Digit,13.0,2.0,37.0,766.0,1.0,2.0,ABA
BI_C_Digit,13.0,2.0,38.0,1392.0,1.0,3.0,CBA
BI_C_Digit,13.0,2.0,39.0,1420.0,1.0,1.0,CBA
BI_C_Digit,13.0,2.0,40.0,906.0,1.0,2.0,CBA
BI_C_Digit,13.0,2.0,41.0,1764.0,1.0,3.0,CBA
BI_C_Digit,13.0,2.0,42.0,526.0,1.0,1.0,CBA
BI_C_Digit,13.0,2.0,43.0,514.0,1.0,3.0,ABA
BI_C_Digit,13.0,2.0,44.0,1047.0,1.0,1.0,ABA
BI_C_Digit,13.0,2.0,45.0,705.0,1.0,2.0,CBA
BI_C_Digit,13.0,2.0,46.0,1155.0,1.0,1.0,ABA
BI_C_Digit,13.0,2.0,47.0,849.0,1.0,3.0,CBA
BI_C_Digit,13.0,2.0,48.0,1295.0,1.0,2.0,CBA
BI_C_Digit,13.0,2.0,49.0,957.0,1.0,1.0,CBA
BI_C_Digit,13.0,2.0,50.0,862.0,1.0,3.0,CBA
BI_C_Digit,13.0,2.0,51.0,704.0,1.0,2.0,CBA
BI_C_Digit,13.0,2.0,52.0,538.0,1.0,3.0,ABA
BI_C_Digit,13.0,2.0,53.0,828.0,1.0,1.0,CBA
BI_C_Digit,13.0,2.0,54.0,1189.0,1.0,2.0,CBA
BI_C_Digit,13.0,2.0,55.0,557.0,1.0,3.0,CBA
BI_C_Digit,13.0,2.0,56.0,1124.0,1.0,2.0,ABA
BI_C_Digit,13.0,2.0,57.0,578.0,1.0,1.0,CBA
BI_C_Digit,13.0,2.0,58.0,558.0,1.0,2.0,ABA
BI_C_Digit,13.0,2.0,59.0,1689.0,1.0,3.0,CBA
BI_C_Digit,13.0,2.0,60.0,526.0,1.0,1.0,CBA
BI_C_Digit,13.0,2.0,61.0,1268.0,1.0,2.0,CBA
BI_C_Digit,13.0,2.0,62.0,568.0,1.0,1.0,ABA
BI_C_Digit,13.0,2.0,63.0,698.0,1.0,2.0,ABA
BI_C_Digit,13.0,2.0,64.0,1533.0,1.0,3.0,CBA
BI_C_Digit,13.0,2.0,65.0,1761.0,1.0,2.0,ABA
BI_C_Digit,13.0,2.0,66.0,1137.0,1.0,3.0,ABA
BI_C_Digit,13.0,2.0,67.0,1126.0,1.0,1.0,CBA
BI_C_Digit,13.0,2.0,68.0,1971.0,1.0,2.0,CBA
BI_C_Digit,13.0,2.0,69.0,1893.0,0.0,3.0,CBA
BI_C_Digit,13.0,2.0,70.0,1149.0,1.0,1.0,CBA
BI_C_Digit,13.0,2.0,71.0,2371.0,1.0,2.0,CBA
BI_C_Digit,13.0,2.0,72.0,486.0,1.0,1.0,ABA
BI_C_Digit,13.0,2.0,73.0,1783.0,1.0,2.0,ABA
BI_C_Digit,13.0,2.0,74.0,1295.0,1.0,1.0,ABA
BI_C_Digit,13.0,2.0,75.0,957.0,1.0,3.0,CBA
BI_C_Digit,13.0,2.0,76.0,1074.0,1.0,1.0,ABA
BI_C_Digit,13.0,2.0,77.0,776.0,1.0,2.0,CBA
BI_C_Digit,13.0,2.0,78.0,860.0,1.0,3.0,CBA
BI_C_Digit,13.0,2.0,79.0,929.0,0.0,2.0,ABA
BI_C_Digit,13.0,2.0,80.0,1182.0,1.0,1.0,CBA
BI_C_Digit,13.0,2.0,81.0,642.0,1.0,2.0,ABA
BI_C_Digit,13.0,2.0,82.0,643.0,1.0,1.0,ABA
BI_C_Digit,13.0,2.0,83.0,967.0,1.0,2.0,ABA
BI_C_Digit,13.0,2.0,84.0,639.0,1.0,3.0,CBA
BI_C_Digit,13.0,2.0,85.0,1498.0,1.0,2.0,ABA
BI_C_Digit,13.0,2.0,86.0,1098.0,1.0,3.0,ABA
BI_C_Digit,13.0,2.0,87.0,1941.0,1.0,2.0,ABA
BI_C_Digit,13.0,2.0,88.0,1644.0,1.0,1.0,CBA
BI_C_Digit,13.0,2.0,89.0,1135.0,1.0,2.0,ABA
BI_C_Digit,13.0,2.0,90.0,2936.0,1.0,3.0,CBA
BI_C_Digit,13.0,2.0,91.0,1008.0,1.0,1.0,CBA
BI_C_Digit,13.0,2.0,92.0,776.0,1.0,3.0,ABA
BI_C_Digit,13.0,2.0,93.0,1655.0,1.0,1.0,ABA
BI_C_Digit,13.0,2.0,94.0,1426.0,1.0,3.0,ABA
BI_C_Digit,13.0,2.0,95.0,1606.0,1.0,2.0,CBA
BI_C_Digit,13.0,2.0,96.0,1260.0,1.0,1.0,CBA
BI_C_Digit,13.0,2.0,97.0,666.0,1.0,2.0,ABA
BI_C_Digit,13.0,2.0,98.0,1873.0,1.0,3.0,CBA
BI_C_Digit,13.0,2.0,99.0,1988.0,1.0,2.0,ABA
BI_C_Digit,13.0,2.0,100.0,1477.0,1.0,3.0,ABA
BI_C_Digit,13.0,2.0,101.0,742.0,1.0,1.0,CBA
BI_C_Digit,13.0,2.0,102.0,1266.0,1.0,2.0,CBA
BI_C_Digit,13.0,2.0,103.0,957.0,1.0,1.0,ABA
BI_C_Digit,13.0,2.0,104.0,1550.0,1.0,3.0,CBA
BI_C_Digit,13.0,2.0,105.0,1291.0,1.0,2.0,CBA
BI_C_Digit,13.0,2.0,106.0,1093.0,1.0,1.0,CBA
BI_C_Digit,13.0,2.0,107.0,1204.0,1.0,3.0,CBA
BI_C_Digit,13.0,2.0,108.0,1148.0,1.0,1.0,ABA
BI_C_Digit,13.0,2.0,109.0,1306.0,0.0,3.0,ABA
BI_C_Digit,13.0,2.0,110.0,1110.0,1.0,2.0,CBA
BI_C_Digit,13.0,2.0,111.0,1562.0,1.0,3.0,ABA
BI_C_Digit,13.0,2.0,112.0,445.0,1.0,1.0,CBA
BI_C_Digit,13.0,2.0,113.0,828.0,1.0,3.0,ABA
BI_C_Digit,13.0,2.0,114.0,756.0,1.0,1.0,ABA
BI_C_Digit,13.0,2.0,115.0,1495.0,1.0,3.0,ABA
BI_C_Digit,13.0,2.0,116.0,692.0,1.0,1.0,ABA
BI_C_Digit,13.0,2.0,117.0,671.0,1.0,3.0,ABA
BI_C_Digit,13.0,2.0,118.0,1319.0,1.0,1.0,ABA
BI_C_Digit,13.0,2.0,119.0,652.0,1.0,3.0,ABA
BI_C_Digit,13.0,2.0,120.0,713.0,1.0,2.0,CBA
BI_C_Digit,13.0,3.0,1.0,919.0,1.0,3.0,0.0
BI_C_Digit,13.0,3.0,2.0,1259.0,1.0,2.0,0.0
BI_C_Digit,13.0,3.0,3.0,413.0,1.0,3.0,ABA
BI_C_Digit,13.0,3.0,4.0,478.0,1.0,1.0,CBA
BI_C_Digit,13.0,3.0,5.0,491.0,1.0,3.0,ABA
BI_C_Digit,13.0,3.0,6.0,1475.0,1.0,2.0,CBA
BI_C_Digit,13.0,3.0,7.0,1205.0,1.0,1.0,CBA
BI_C_Digit,13.0,3.0,8.0,961.0,1.0,3.0,CBA
BI_C_Digit,13.0,3.0,9.0,1641.0,1.0,1.0,ABA
BI_C_Digit,13.0,3.0,10.0,2239.0,1.0,3.0,ABA
BI_C_Digit,13.0,3.0,11.0,592.0,1.0,2.0,CBA
BI_C_Digit,13.0,3.0,12.0,1290.0,1.0,1.0,CBA
BI_C_Digit,13.0,3.0,13.0,1123.0,1.0,3.0,CBA
BI_C_Digit,13.0,3.0,14.0,1799.0,1.0,2.0,CBA
BI_C_Digit,13.0,3.0,15.0,1203.0,1.0,3.0,ABA
BI_C_Digit,13.0,3.0,16.0,1265.0,1.0,1.0,CBA
BI_C_Digit,13.0,3.0,17.0,1327.0,1.0,3.0,ABA
BI_C_Digit,13.0,3.0,18.0,829.0,1.0,1.0,ABA
BI_C_Digit,13.0,3.0,19.0,1325.0,1.0,2.0,CBA
BI_C_Digit,13.0,3.0,20.0,401.0,1.0,3.0,CBA
BI_C_Digit,13.0,3.0,21.0,670.0,1.0,1.0,CBA
BI_C_Digit,13.0,3.0,22.0,1389.0,1.0,3.0,ABA
BI_C_Digit,13.0,3.0,23.0,917.0,1.0,1.0,ABA
BI_C_Digit,13.0,3.0,24.0,620.0,1.0,2.0,CBA
BI_C_Digit,13.0,3.0,25.0,432.0,1.0,1.0,ABA
BI_C_Digit,13.0,3.0,26.0,527.0,1.0,2.0,ABA
BI_C_Digit,13.0,3.0,27.0,525.0,1.0,3.0,CBA
BI_C_Digit,13.0,3.0,28.0,439.0,1.0,1.0,CBA
BI_C_Digit,13.0,3.0,29.0,1636.0,1.0,3.0,ABA
BI_C_Digit,13.0,3.0,30.0,663.0,1.0,2.0,CBA
BI_C_Digit,13.0,3.0,31.0,1210.0,1.0,1.0,CBA
BI_C_Digit,13.0,3.0,32.0,622.0,0.0,2.0,ABA
BI_C_Digit,13.0,3.0,33.0,427.0,1.0,3.0,CBA
BI_C_Digit,13.0,3.0,34.0,660.0,1.0,1.0,CBA
BI_C_Digit,13.0,3.0,35.0,1286.0,1.0,3.0,ABA
BI_C_Digit,13.0,3.0,36.0,1140.0,1.0,2.0,CBA
BI_C_Digit,13.0,3.0,37.0,1598.0,1.0,1.0,CBA
BI_C_Digit,13.0,3.0,38.0,763.0,1.0,2.0,ABA
BI_C_Digit,13.0,3.0,39.0,1078.0,1.0,3.0,CBA
BI_C_Digit,13.0,3.0,40.0,1358.0,1.0,2.0,ABA
BI_C_Digit,13.0,3.0,41.0,952.0,1.0,1.0,CBA
BI_C_Digit,13.0,3.0,42.0,1069.0,1.0,2.0,ABA
BI_C_Digit,13.0,3.0,43.0,600.0,1.0,1.0,ABA
BI_C_Digit,13.0,3.0,44.0,823.0,1.0,3.0,CBA
BI_C_Digit,13.0,3.0,45.0,1144.0,1.0,2.0,CBA
BI_C_Digit,13.0,3.0,46.0,674.0,1.0,1.0,CBA
BI_C_Digit,13.0,3.0,47.0,1066.0,1.0,2.0,ABA
BI_C_Digit,13.0,3.0,48.0,1077.0,1.0,3.0,CBA
BI_C_Digit,13.0,3.0,49.0,535.0,1.0,2.0,ABA
BI_C_Digit,13.0,3.0,50.0,1482.0,1.0,3.0,ABA
BI_C_Digit,13.0,3.0,51.0,981.0,1.0,2.0,ABA
BI_C_Digit,13.0,3.0,52.0,688.0,1.0,1.0,CBA
BI_C_Digit,13.0,3.0,53.0,648.0,1.0,3.0,CBA
BI_C_Digit,13.0,3.0,54.0,759.0,1.0,2.0,CBA
BI_C_Digit,13.0,3.0,55.0,1244.0,1.0,3.0,ABA
BI_C_Digit,13.0,3.0,56.0,1109.0,1.0,2.0,ABA
BI_C_Digit,13.0,3.0,57.0,469.0,1.0,3.0,ABA
BI_C_Digit,13.0,3.0,58.0,984.0,1.0,2.0,ABA
BI_C_Digit,13.0,3.0,59.0,1558.0,1.0,3.0,ABA
BI_C_Digit,13.0,3.0,60.0,1763.0,1.0,2.0,ABA
BI_C_Digit,13.0,3.0,61.0,1378.0,1.0,3.0,ABA
BI_C_Digit,13.0,3.0,62.0,898.0,1.0,1.0,CBA
BI_C_Digit,13.0,3.0,63.0,859.0,1.0,3.0,ABA
BI_C_Digit,13.0,3.0,64.0,1452.0,1.0,1.0,ABA
BI_C_Digit,13.0,3.0,65.0,1397.0,1.0,2.0,CBA
BI_C_Digit,13.0,3.0,66.0,433.0,1.0,1.0,ABA
BI_C_Digit,13.0,3.0,67.0,511.0,1.0,2.0,ABA
BI_C_Digit,13.0,3.0,68.0,556.0,1.0,3.0,CBA
BI_C_Digit,13.0,3.0,69.0,520.0,1.0,1.0,CBA
BI_C_Digit,13.0,3.0,70.0,1306.0,1.0,2.0,CBA
BI_C_Digit,13.0,3.0,71.0,555.0,1.0,3.0,CBA
BI_C_Digit,13.0,3.0,72.0,1594.0,1.0,2.0,ABA
BI_C_Digit,13.0,3.0,73.0,1690.0,1.0,3.0,ABA
BI_C_Digit,13.0,3.0,74.0,907.0,1.0,1.0,CBA
BI_C_Digit,13.0,3.0,75.0,1126.0,1.0,2.0,CBA
BI_C_Digit,13.0,3.0,76.0,1057.0,1.0,1.0,ABA
BI_C_Digit,13.0,3.0,77.0,1465.0,1.0,2.0,ABA
BI_C_Digit,13.0,3.0,78.0,1909.0,1.0,3.0,CBA
BI_C_Digit,13.0,3.0,79.0,493.0,1.0,1.0,CBA
BI_C_Digit,13.0,3.0,80.0,552.0,1.0,2.0,CBA
BI_C_Digit,13.0,3.0,81.0,450.0,1.0,1.0,ABA
BI_C_Digit,13.0,3.0,82.0,576.0,1.0,3.0,CBA
BI_C_Digit,13.0,3.0,83.0,1022.0,1.0,2.0,CBA
BI_C_Digit,13.0,3.0,84.0,1589.0,1.0,1.0,CBA
BI_C_Digit,13.0,3.0,85.0,1109.0,1.0,3.0,CBA
BI_C_Digit,13.0,3.0,86.0,1164.0,1.0,1.0,ABA
BI_C_Digit,13.0,3.0,87.0,1041.0,1.0,3.0,ABA
BI_C_Digit,13.0,3.0,88.0,1496.0,1.0,1.0,ABA
BI_C_Digit,13.0,3.0,89.0,509.0,1.0,3.0,ABA
BI_C_Digit,13.0,3.0,90.0,1552.0,1.0,2.0,CBA
BI_C_Digit,13.0,3.0,91.0,1362.0,1.0,3.0,ABA
BI_C_Digit,13.0,3.0,92.0,962.0,1.0,2.0,ABA
BI_C_Digit,13.0,3.0,93.0,573.0,1.0,1.0,CBA
BI_C_Digit,13.0,3.0,94.0,575.0,1.0,3.0,CBA
BI_C_Digit,13.0,3.0,95.0,613.0,1.0,2.0,CBA
BI_C_Digit,13.0,3.0,96.0,524.0,1.0,3.0,ABA
BI_C_Digit,13.0,3.0,97.0,478.0,1.0,1.0,CBA
BI_C_Digit,13.0,3.0,98.0,484.0,1.0,2.0,CBA
BI_C_Digit,13.0,3.0,99.0,1531.0,1.0,1.0,ABA
BI_C_Digit,13.0,3.0,100.0,610.0,1.0,3.0,CBA
BI_C_Digit,13.0,3.0,101.0,783.0,1.0,1.0,ABA
BI_C_Digit,13.0,3.0,102.0,2967.0,1.0,3.0,ABA
BI_C_Digit,13.0,3.0,103.0,1341.0,1.0,2.0,CBA
BI_C_Digit,13.0,3.0,104.0,397.0,1.0,1.0,CBA
BI_C_Digit,13.0,3.0,105.0,1238.0,1.0,2.0,ABA
BI_C_Digit,13.0,3.0,106.0,1445.0,1.0,1.0,ABA
BI_C_Digit,13.0,3.0,107.0,1797.0,1.0,3.0,CBA
BI_C_Digit,13.0,3.0,108.0,493.0,1.0,1.0,ABA
BI_C_Digit,13.0,3.0,109.0,1170.0,1.0,3.0,ABA
BI_C_Digit,13.0,3.0,110.0,847.0,1.0,2.0,CBA
BI_C_Digit,13.0,3.0,111.0,426.0,1.0,1.0,CBA
BI_C_Digit,13.0,3.0,112.0,699.0,1.0,3.0,CBA
BI_C_Digit,13.0,3.0,113.0,589.0,1.0,1.0,ABA
BI_C_Digit,13.0,3.0,114.0,1672.0,1.0,2.0,CBA
BI_C_Digit,13.0,3.0,115.0,1324.0,1.0,1.0,ABA
BI_C_Digit,13.0,3.0,116.0,1154.0,1.0,2.0,ABA
BI_C_Digit,13.0,3.0,117.0,1084.0,1.0,1.0,ABA
BI_C_Digit,13.0,3.0,118.0,1102.0,1.0,2.0,ABA
BI_C_Digit,13.0,3.0,119.0,817.0,1.0,1.0,ABA
BI_C_Digit,13.0,3.0,120.0,839.0,1.0,2.0,ABA
BI_C_Digit,13.0,4.0,1.0,666.0,1.0,3.0,0.0
BI_C_Digit,13.0,4.0,2.0,1236.0,1.0,2.0,0.0
BI_C_Digit,13.0,4.0,3.0,827.0,0.0,3.0,ABA
BI_C_Digit,13.0,4.0,4.0,1603.0,1.0,2.0,ABA
BI_C_Digit,13.0,4.0,5.0,1334.0,1.0,3.0,ABA
BI_C_Digit,13.0,4.0,6.0,1131.0,1.0,2.0,ABA
BI_C_Digit,13.0,4.0,7.0,1491.0,1.0,3.0,ABA
BI_C_Digit,13.0,4.0,8.0,1554.0,1.0,2.0,ABA
BI_C_Digit,13.0,4.0,9.0,731.0,1.0,1.0,CBA
BI_C_Digit,13.0,4.0,10.0,798.0,1.0,2.0,ABA
BI_C_Digit,13.0,4.0,11.0,963.0,1.0,1.0,ABA
BI_C_Digit,13.0,4.0,12.0,1441.0,1.0,2.0,ABA
BI_C_Digit,13.0,4.0,13.0,1095.0,1.0,1.0,ABA
BI_C_Digit,13.0,4.0,14.0,705.0,1.0,3.0,CBA
BI_C_Digit,13.0,4.0,15.0,1727.0,1.0,1.0,ABA
BI_C_Digit,13.0,4.0,16.0,1622.0,1.0,3.0,ABA
BI_C_Digit,13.0,4.0,17.0,654.0,1.0,2.0,CBA
BI_C_Digit,13.0,4.0,18.0,598.0,1.0,1.0,CBA
BI_C_Digit,13.0,4.0,19.0,1771.0,1.0,3.0,CBA
BI_C_Digit,13.0,4.0,20.0,938.0,1.0,2.0,CBA
BI_C_Digit,13.0,4.0,21.0,460.0,1.0,1.0,CBA
BI_C_Digit,13.0,4.0,22.0,501.0,1.0,3.0,CBA
BI_C_Digit,13.0,4.0,23.0,1028.0,1.0,2.0,CBA
BI_C_Digit,13.0,4.0,24.0,934.0,1.0,3.0,ABA
BI_C_Digit,13.0,4.0,25.0,766.0,1.0,2.0,ABA
BI_C_Digit,13.0,4.0,26.0,989.0,1.0,1.0,CBA
BI_C_Digit,13.0,4.0,27.0,844.0,1.0,3.0,CBA
BI_C_Digit,13.0,4.0,28.0,715.0,1.0,2.0,CBA
BI_C_Digit,13.0,4.0,29.0,895.0,1.0,3.0,ABA
BI_C_Digit,13.0,4.0,30.0,655.0,1.0,1.0,CBA
BI_C_Digit,13.0,4.0,31.0,2441.0,1.0,3.0,ABA
BI_C_Digit,13.0,4.0,32.0,1591.0,1.0,1.0,ABA
BI_C_Digit,13.0,4.0,33.0,490.0,1.0,2.0,CBA
BI_C_Digit,13.0,4.0,34.0,848.0,1.0,3.0,CBA
