subjectid,block,blocktype,trial,latency1,accuracy1,latency2,accuracy2,SOA,taskpair,RT1_SOAdif,T1,T2,T1T2sequence,S1,S2,R1beforeS1onset,R2beforeS2onset
1,1,1,1,2634,1,2026,1,1000,1,1634.0,1,2,2,E,9,0,0
1,1,1,2,1926,1,1422,1,1000,2,926.0,2,2,1,9,8,0,0
1,1,1,3,804,1,668,1,2000,3,-1196.0,1,1,1,U,A,0,0
1,1,1,4,1720,1,1996,1,50,4,1570.0,2,1,2,7,A,0,0
1,1,1,5,512,1,632,1,450,1,62.0,1,2,2,A,4,0,0
1,1,1,6,1002,1,993,1,450,4,552.0,2,1,2,3,K,0,0
1,1,1,7,670,1,898,1,50,3,520.0,1,1,1,R,A,0,0
1,1,1,8,587,1,586,1,2000,2,-1413.0,2,2,1,2,4,0,0
1,1,1,9,626,1,522,1,2000,1,-1374.0,1,2,2,K,2,0,0
1,1,1,10,514,1,500,1,450,3,64.0,1,1,1,I,M,0,0
1,1,1,11,482,1,578,1,2000,4,-1518.0,2,1,2,4,I,0,0
1,1,1,12,489,1,748,1,450,2,39.0,2,2,1,3,1,0,0
1,1,1,13,623,1,742,1,50,1,473.0,1,2,2,K,6,0,0
1,1,1,14,417,1,602,1,50,2,267.0,2,2,1,8,1,0,0
1,1,1,15,489,1,504,1,1000,4,-511.0,2,1,2,7,U,0,0
1,1,1,16,540,0,475,1,1000,3,-460.0,1,1,1,E,G,0,0
1,1,1,17,448,1,463,1,2000,4,-1552.0,2,1,2,2,E,0,0
1,1,1,18,476,1,622,1,50,3,326.0,1,1,1,K,R,0,0
1,1,1,19,588,1,587,1,1000,2,-412.0,2,2,1,6,7,0,0
1,1,1,20,3338,1,2582,1,1000,1,2338.0,1,2,2,A,8,0,0
1,1,1,21,585,1,559,1,450,2,135.0,2,2,1,1,4,0,0
1,1,1,22,582,1,433,1,450,1,132.0,1,2,2,A,2,0,0
1,1,1,23,625,1,544,1,2000,3,-1375.0,1,1,1,U,M,0,0
1,1,1,24,722,1,458,1,1000,4,-278.0,2,1,2,2,U,0,0
1,2,2,1,656,1,679,1,50,2,506.0,2,2,1,6,8,0,0
1,2,2,2,589,1,659,1,50,1,439.0,1,2,2,E,2,0,0
1,2,2,3,515,1,554,1,2000,2,-1485.0,2,2,1,8,9,0,0
1,2,2,4,588,1,507,1,1000,3,-412.0,1,1,1,A,R,0,0
1,2,2,5,638,1,606,1,2000,1,-1362.0,1,2,2,A,6,0,0
1,2,2,6,1260,1,629,1,1000,1,260.0,1,2,2,I,7,0,0
1,2,2,7,553,1,661,1,50,4,403.0,2,1,2,6,A,0,0
1,2,2,8,470,1,511,1,450,2,20.0,2,2,1,6,1,0,0
1,2,2,9,478,1,461,1,1000,2,-522.0,2,2,1,7,2,0,0
1,2,2,10,466,1,454,1,450,4,16.0,2,1,2,4,E,0,0
1,2,2,11,587,1,555,1,450,3,137.0,1,1,1,R,G,0,0
1,2,2,12,601,1,496,1,1000,4,-399.0,2,1,2,8,R,0,0
1,2,2,13,507,1,667,1,50,4,357.0,2,1,2,7,I,0,0
1,2,2,14,584,1,446,1,450,1,134.0,1,2,2,I,4,0,0
1,2,2,15,539,1,650,1,1000,3,-461.0,1,1,1,A,G,0,0
1,2,2,16,623,1,439,1,2000,2,-1377.0,2,2,1,7,9,0,0
1,2,2,17,579,1,668,1,450,4,129.0,2,1,2,4,A,0,0
1,2,2,18,460,1,1040,1,50,1,310.0,1,2,2,U,4,0,0
1,2,2,19,708,1,539,1,2000,1,-1292.0,1,2,2,E,6,0,0
1,2,2,20,596,1,698,1,50,2,446.0,2,2,1,9,2,0,0
1,2,2,21,537,1,536,1,1000,1,-463.0,1,2,2,K,8,0,0
1,2,2,22,433,1,554,1,50,1,283.0,1,2,2,R,6,0,0
1,2,2,23,395,1,496,1,450,3,-55.0,1,1,1,R,U,0,0
1,2,2,24,484,1,716,1,2000,4,-1516.0,2,1,2,9,K,0,0
1,2,2,25,606,1,445,1,2000,3,-1394.0,1,1,1,M,U,0,0
1,2,2,26,427,1,597,1,50,3,277.0,1,1,1,K,U,0,0
1,2,2,27,507,1,522,1,2000,1,-1493.0,1,2,2,U,1,0,0
1,2,2,28,476,1,706,1,450,1,26.0,1,2,2,E,3,0,0
1,2,2,29,483,1,588,1,50,4,333.0,2,1,2,2,G,0,0
1,2,2,30,476,1,483,1,2000,2,-1524.0,2,2,1,6,2,0,0
1,2,2,31,751,1,789,1,450,2,301.0,2,2,1,7,1,0,0
1,2,2,32,547,1,922,1,50,2,397.0,2,2,1,8,2,0,0
1,2,2,33,478,1,550,1,450,3,28.0,1,1,1,G,M,0,0
1,2,2,34,492,1,515,1,1000,3,-508.0,1,1,1,E,U,0,0
1,2,2,35,678,1,453,1,1000,2,-322.0,2,2,1,9,4,0,0
1,2,2,36,451,1,560,1,450,2,1.0,2,2,1,4,9,0,0
1,2,2,37,552,1,488,1,2000,3,-1448.0,1,1,1,I,R,0,0
1,2,2,38,579,1,752,1,50,3,429.0,1,1,1,U,K,0,0
1,2,2,39,670,1,621,1,1000,2,-330.0,2,2,1,3,9,0,0
1,2,2,40,508,1,507,1,1000,1,-492.0,1,2,2,G,6,0,0
1,2,2,41,686,1,621,1,2000,2,-1314.0,2,2,1,9,7,0,0
1,2,2,42,755,1,842,1,50,1,605.0,1,2,2,M,2,0,0
1,2,2,43,506,1,521,1,1000,3,-494.0,1,1,1,U,G,0,0
1,2,2,44,635,1,537,1,450,1,185.0,1,2,2,U,2,0,0
1,2,2,45,562,1,489,1,1000,4,-438.0,2,1,2,6,M,0,0
1,2,2,46,453,1,413,0,450,4,3.0,2,1,2,3,U,0,0
1,2,2,47,664,1,823,1,50,2,514.0,2,2,1,1,2,0,0
1,2,2,48,536,1,448,1,2000,3,-1464.0,1,1,1,G,R,0,0
1,2,2,49,430,1,397,1,2000,1,-1570.0,1,2,2,G,9,0,0
1,2,2,50,510,1,540,1,1000,2,-490.0,2,2,1,4,8,0,0
1,2,2,51,590,1,638,1,2000,4,-1410.0,2,1,2,3,R,0,0
1,2,2,52,883,0,1735,1,450,3,433.0,1,1,1,M,K,0,0
1,2,2,53,1193,1,1347,0,50,4,1043.0,2,1,2,9,E,0,0
1,2,2,54,787,1,691,1,450,1,337.0,1,2,2,M,7,0,0
1,2,2,55,699,1,875,1,50,3,549.0,1,1,1,K,E,0,0
1,2,2,56,600,1,504,1,1000,4,-400.0,2,1,2,8,M,0,0
1,2,2,57,467,1,442,1,2000,1,-1533.0,1,2,2,G,1,0,0
1,2,2,58,503,1,455,1,450,4,53.0,2,1,2,7,R,0,0
1,2,2,59,464,1,440,1,2000,2,-1536.0,2,2,1,2,8,0,0
1,2,2,60,478,1,469,1,2000,4,-1522.0,2,1,2,6,R,0,0
1,2,2,61,609,1,875,0,50,4,459.0,2,1,2,9,G,0,0
1,2,2,62,518,1,540,1,450,4,68.0,2,1,2,6,I,0,0
1,2,2,63,517,1,540,1,2000,3,-1483.0,1,1,1,E,K,0,0
1,2,2,64,765,1,868,1,50,3,615.0,1,1,1,E,R,0,0
1,2,2,65,1338,1,1115,1,450,2,888.0,2,2,1,2,7,0,0
1,3,2,1,478,1,650,1,50,2,328.0,2,2,1,9,1,0,0
1,3,2,2,564,1,439,1,450,2,114.0,2,2,1,2,9,0,0
1,3,2,3,535,1,478,1,1000,4,-465.0,2,1,2,7,K,0,0
1,3,2,4,747,1,549,1,450,3,297.0,1,1,1,G,I,0,0
1,3,2,5,504,1,597,1,50,2,354.0,2,2,1,4,2,0,0
1,3,2,6,536,1,611,1,50,1,386.0,1,2,2,M,1,0,0
1,3,2,7,472,1,551,1,2000,4,-1528.0,2,1,2,3,A,0,0
1,3,2,8,625,1,441,1,1000,4,-375.0,2,1,2,1,R,0,0
1,3,2,9,590,1,413,1,1000,1,-410.0,1,2,2,R,9,0,0
1,3,2,10,477,1,460,1,1000,2,-523.0,2,2,1,6,9,0,0
1,3,2,11,450,1,521,1,1000,3,-550.0,1,1,1,R,K,0,0
1,3,2,12,476,0,468,1,2000,1,-1524.0,1,2,2,I,9,0,0
1,3,2,13,551,1,609,1,50,3,401.0,1,1,1,K,G,0,0
1,3,2,14,591,1,454,1,2000,4,-1409.0,2,1,2,8,K,0,0
1,3,2,15,931,0,1870,1,450,4,481.0,2,1,2,6,E,0,0
1,3,2,16,582,1,574,1,2000,2,-1418.0,2,2,1,2,1,0,0
1,3,2,17,637,1,517,1,2000,3,-1363.0,1,1,1,R,E,0,0
1,3,2,18,503,1,627,1,50,1,353.0,1,2,2,K,9,0,0
1,3,2,19,510,1,585,1,50,4,360.0,2,1,2,8,I,0,0
1,3,2,20,359,1,367,1,2000,4,-1641.0,2,1,2,8,U,0,0
1,3,2,21,448,1,463,1,1000,2,-552.0,2,2,1,8,6,0,0
1,3,2,22,524,1,640,1,450,2,74.0,2,2,1,7,8,0,0
1,3,2,23,495,1,566,1,1000,1,-505.0,1,2,2,G,4,0,0
1,3,2,24,558,1,610,1,450,1,108.0,1,2,2,A,1,0,0
1,3,2,25,481,1,392,1,1000,1,-519.0,1,2,2,M,4,0,0
1,3,2,26,463,1,845,1,50,2,313.0,2,2,1,3,4,0,0
1,3,2,27,430,1,493,1,1000,3,-570.0,1,1,1,G,K,0,0
1,3,2,28,538,1,954,1,2000,2,-1462.0,2,2,1,1,8,0,0
1,3,2,29,458,1,555,1,50,4,308.0,2,1,2,4,U,0,0
1,3,2,30,524,1,616,1,450,4,74.0,2,1,2,1,E,0,0
1,3,2,31,616,1,532,1,450,3,166.0,1,1,1,U,E,0,0
1,3,2,32,719,1,646,1,1000,4,-281.0,2,1,2,8,G,0,0
1,3,2,33,532,1,779,1,50,1,382.0,1,2,2,I,3,0,0
1,3,2,34,525,1,524,1,1000,3,-475.0,1,1,1,K,M,0,0
1,3,2,35,383,1,559,1,50,3,233.0,1,1,1,K,I,0,0
1,3,2,36,945,1,513,1,2000,3,-1055.0,1,1,1,I,E,0,0
1,3,2,37,995,0,3252,1,450,3,545.0,1,1,1,M,A,0,0
1,3,2,38,527,1,462,0,1000,2,-473.0,2,2,1,2,6,0,0
1,3,2,39,619,1,531,1,2000,2,-1381.0,2,2,1,9,6,0,0
1,3,2,40,445,1,461,1,2000,1,-1555.0,1,2,2,R,1,0,0
1,3,2,41,601,1,527,1,450,4,151.0,2,1,2,2,I,0,0
1,3,2,42,559,1,681,1,50,3,409.0,1,1,1,A,E,0,0
1,3,2,43,532,1,479,1,450,1,82.0,1,2,2,E,8,0,0
1,3,2,44,525,1,557,1,1000,3,-475.0,1,1,1,A,I,0,0
1,3,2,45,534,1,534,1,1000,4,-466.0,2,1,2,9,I,0,0
1,3,2,46,535,1,469,1,450,2,85.0,2,2,1,3,6,0,0
1,3,2,47,624,1,544,1,2000,4,-1376.0,2,1,2,3,M,0,0
1,3,2,48,602,1,529,1,2000,1,-1398.0,1,2,2,R,7,0,0
1,3,2,49,1114,0,2549,1,450,1,664.0,1,2,2,M,8,0,0
1,3,2,50,576,1,698,1,50,2,426.0,2,2,1,6,4,0,0
1,3,2,51,445,1,556,1,2000,3,-1555.0,1,1,1,M,R,0,0
1,3,2,52,461,1,537,1,50,4,311.0,2,1,2,2,K,0,0
1,3,2,53,600,1,713,1,50,1,450.0,1,2,2,R,3,0,0
1,3,2,54,436,1,650,1,450,3,-14.0,1,1,1,K,A,0,0
1,3,2,55,1030,1,506,1,1000,2,30.0,2,2,1,7,6,0,0
1,3,2,56,1520,0,1346,1,1000,1,520.0,1,2,2,U,3,0,0
1,3,2,57,631,1,1114,1,450,2,181.0,2,2,1,3,8,0,0
1,3,2,58,615,1,502,1,1000,4,-385.0,2,1,2,1,I,0,0
1,3,2,59,969,0,1149,1,50,3,819.0,1,1,1,I,G,0,0
1,3,2,60,564,0,419,1,1000,3,-436.0,1,1,1,M,I,0,0
1,3,2,61,505,1,507,1,450,1,55.0,1,2,2,K,3,0,0
1,3,2,62,625,1,544,1,2000,1,-1375.0,1,2,2,U,8,0,0
1,3,2,63,650,1,755,1,50,4,500.0,2,1,2,4,M,0,0
1,3,2,64,379,1,512,1,50,2,229.0,2,2,1,4,6,0,0
1,3,2,65,543,1,613,1,2000,2,-1457.0,2,2,1,1,6,0,0
1,4,2,1,1878,1,1161,1,1000,1,878.0,1,2,2,G,7,0,0
1,4,2,2,639,1,526,1,2000,3,-1361.0,1,1,1,M,G,0,0
1,4,2,3,600,1,1000,1,50,2,450.0,2,2,1,1,9,0,0
1,4,2,4,575,1,604,1,450,4,125.0,2,1,2,9,U,0,0
1,4,2,5,515,0,514,1,2000,2,-1485.0,2,2,1,1,3,0,0
1,4,2,6,1596,1,1750,1,450,3,1146.0,1,1,1,R,M,0,0
1,4,2,7,538,1,760,0,50,1,388.0,1,2,2,I,8,0,0
1,4,2,8,876,1,508,1,2000,4,-1124.0,2,1,2,2,R,0,0
1,4,2,9,518,1,492,1,450,4,68.0,2,1,2,4,R,0,0
1,4,2,10,423,1,526,1,2000,3,-1577.0,1,1,1,G,A,0,0
1,4,2,11,560,1,747,1,50,4,410.0,2,1,2,1,A,0,0
1,4,2,12,516,1,579,1,1000,1,-484.0,1,2,2,M,6,0,0
1,4,2,13,531,1,554,1,1000,2,-469.0,2,2,1,4,3,0,0
1,4,2,14,490,1,646,1,450,1,40.0,1,2,2,G,8,0,0
1,4,2,15,509,1,682,1,450,2,59.0,2,2,1,7,3,0,0
1,4,2,16,510,1,574,1,2000,2,-1490.0,2,2,1,8,4,0,0
1,4,2,17,509,1,983,1,50,1,359.0,1,2,2,M,3,0,0
1,4,2,18,527,1,542,1,1000,3,-473.0,1,1,1,U,I,0,0
1,4,2,19,601,1,456,1,1000,4,-399.0,2,1,2,3,G,0,0
1,4,2,20,550,1,501,1,2000,1,-1450.0,1,2,2,A,7,0,0
1,4,2,21,487,1,599,1,450,1,37.0,1,2,2,R,4,0,0
1,4,2,22,660,1,427,1,2000,4,-1340.0,2,1,2,7,M,0,0
1,4,2,23,537,1,709,1,50,2,387.0,2,2,1,4,7,0,0
1,4,2,24,612,1,661,1,450,2,162.0,2,2,1,4,1,0,0
1,4,2,25,581,1,664,1,450,3,131.0,1,1,1,E,I,0,0
1,4,2,26,551,1,510,1,1000,2,-449.0,2,2,1,8,7,0,0
1,4,2,27,448,1,567,1,50,4,298.0,2,1,2,2,A,0,0
1,4,2,28,634,0,553,1,2000,4,-1366.0,2,1,2,1,U,0,0
1,4,2,29,1033,1,1161,1,50,3,883.0,1,1,1,A,M,0,0
1,4,2,30,1563,1,474,1,2000,1,-437.0,1,2,2,M,9,0,0
1,4,2,31,511,1,614,0,1000,1,-489.0,1,2,2,K,7,0,0
1,4,2,32,500,1,569,1,450,4,50.0,2,1,2,1,K,0,0
1,4,2,33,577,1,684,1,50,2,427.0,2,2,1,2,3,0,0
1,4,2,34,573,1,741,1,50,1,423.0,1,2,2,E,4,0,0
1,4,2,35,487,1,608,1,450,1,37.0,1,2,2,G,3,0,0
1,4,2,36,826,1,720,1,450,3,376.0,1,1,1,E,A,0,0
1,4,2,37,794,1,953,1,1000,1,-206.0,1,2,2,A,3,0,0
1,4,2,38,586,1,505,1,1000,2,-414.0,2,2,1,8,3,0,0
1,4,2,39,541,1,541,1,2000,3,-1459.0,1,1,1,A,K,0,0
1,4,2,40,590,1,553,1,450,2,140.0,2,2,1,1,7,0,0
1,4,2,41,596,1,572,1,2000,2,-1404.0,2,2,1,6,3,0,0
1,4,2,42,485,1,524,1,1000,4,-515.0,2,1,2,6,U,0,0
1,4,2,43,702,1,622,1,2000,4,-1298.0,2,1,2,9,A,0,0
1,4,2,44,461,1,484,1,1000,3,-539.0,1,1,1,G,U,0,0
1,4,2,45,607,1,735,1,50,4,457.0,2,1,2,9,R,0,0
1,4,2,46,546,1,617,1,2000,1,-1454.0,1,2,2,R,8,0,0
1,4,2,47,487,1,627,1,50,1,337.0,1,2,2,U,6,0,0
1,4,2,48,581,1,675,1,50,3,431.0,1,1,1,E,M,0,0
1,4,2,49,586,1,537,1,450,3,136.0,1,1,1,I,K,0,0
1,4,2,50,617,1,592,1,2000,3,-1383.0,1,1,1,I,A,0,0
1,4,2,51,536,1,543,1,1000,2,-464.0,2,2,1,7,4,0,0
1,4,2,52,545,1,489,1,450,2,95.0,2,2,1,3,2,0,0
1,4,2,53,617,1,738,1,50,3,467.0,1,1,1,R,I,0,0
1,4,2,54,531,1,498,1,1000,3,-469.0,1,1,1,U,R,0,0
1,4,2,55,773,1,624,1,450,3,323.0,1,1,1,G,E,0,0
1,4,2,56,593,1,544,1,1000,1,-407.0,1,2,2,E,1,0,0
1,4,2,57,667,1,570,1,2000,2,-1333.0,2,2,1,9,3,0,0
1,4,2,58,755,1,658,1,2000,1,-1245.0,1,2,2,K,4,0,0
1,4,2,59,696,0,999,1,1000,4,-304.0,2,1,2,1,M,0,0
1,4,2,60,654,1,771,1,50,2,504.0,2,2,1,3,7,0,0
1,4,2,61,1070,1,910,1,450,4,620.0,2,1,2,2,M,0,0
1,4,2,62,477,1,493,1,2000,4,-1523.0,2,1,2,1,G,0,0
1,4,2,63,505,1,480,1,1000,3,-495.0,1,1,1,M,E,0,0
1,4,2,64,477,1,452,1,1000,4,-523.0,2,1,2,6,K,0,0
1,4,2,65,426,1,607,1,450,1,-24.0,1,2,2,E,7,0,0
1,5,2,1,666,1,810,1,50,4,516.0,2,1,2,3,E,0,0
1,5,2,2,601,1,1210,1,50,1,451.0,1,2,2,U,7,0,0
1,5,2,3,544,1,519,1,1000,1,-456.0,1,2,2,G,2,0,0
1,5,2,4,561,1,737,1,450,1,111.0,1,2,2,U,9,0,0
1,5,2,5,480,0,576,1,2000,3,-1520.0,1,1,1,I,U,0,0
1,5,2,6,480,1,622,1,50,1,330.0,1,2,2,A,9,0,0
1,5,2,7,647,1,702,1,50,3,497.0,1,1,1,A,U,0,0
1,5,2,8,491,1,463,1,450,2,41.0,2,2,1,2,9,0,0
1,5,2,9,588,1,758,1,450,4,138.0,2,1,2,7,E,0,0
1,5,2,10,547,1,602,1,2000,3,-1453.0,1,1,1,M,I,0,0
1,5,2,11,657,1,576,1,1000,4,-343.0,2,1,2,6,G,0,0
1,5,2,12,513,1,496,1,2000,2,-1487.0,2,2,1,2,6,0,0
1,5,2,13,660,1,475,1,1000,3,-340.0,1,1,1,R,A,0,0
1,5,2,14,496,1,440,1,2000,1,-1504.0,1,2,2,I,2,0,0
1,5,2,15,509,1,514,1,450,4,59.0,2,1,2,4,G,0,0
1,5,2,16,508,1,456,1,450,1,58.0,1,2,2,R,2,0,0
1,5,2,17,485,1,544,1,50,2,335.0,2,2,1,6,3,0,0
1,5,2,18,528,1,623,1,2000,1,-1472.0,1,2,2,K,1,0,0
1,5,2,19,508,1,630,1,50,4,358.0,2,1,2,8,A,0,0
1,5,2,20,467,1,506,1,1000,2,-533.0,2,2,1,6,8,0,0
1,5,2,21,558,1,517,1,1000,1,-442.0,1,2,2,I,6,0,0
1,5,2,22,503,1,694,1,450,2,53.0,2,2,1,3,2,0,0
1,5,2,23,574,1,958,1,50,2,424.0,2,2,1,9,8,0,0
1,5,2,24,615,1,683,1,450,3,165.0,1,1,1,U,G,0,0
1,5,2,25,576,1,544,1,2000,2,-1424.0,2,2,1,8,3,0,0
1,5,2,26,490,1,489,1,2000,4,-1510.0,2,1,2,8,E,0,0
1,5,2,27,436,1,483,1,1000,4,-564.0,2,1,2,7,G,0,0
1,5,2,28,566,1,710,1,50,3,416.0,1,1,1,E,G,0,0
1,5,2,29,714,1,418,1,2000,4,-1286.0,2,1,2,3,I,0,0
1,5,2,30,511,1,611,1,50,4,361.0,2,1,2,9,M,0,0
1,5,2,32,489,1,659,1,450,2,39.0,2,2,1,7,1,0,0
1,5,2,33,530,1,604,1,450,3,80.0,1,1,1,I,U,0,0
1,5,2,34,655,1,1500,0,50,1,505.0,1,2,2,I,1,0,0
1,5,2,35,491,1,591,1,450,4,41.0,2,1,2,4,K,0,0
1,5,2,36,462,1,534,1,2000,4,-1538.0,2,1,2,2,M,0,0
1,5,2,37,423,1,486,1,50,3,273.0,1,1,1,K,M,0,0
1,5,2,38,428,1,468,1,1000,2,-572.0,2,2,1,4,6,0,0
1,5,2,39,400,1,585,1,50,2,250.0,2,2,1,2,1,0,0
1,5,2,40,496,1,545,1,450,4,46.0,2,1,2,9,R,0,0
1,5,2,41,670,1,453,1,1000,1,-330.0,1,2,2,U,2,0,0
1,5,2,42,522,1,532,1,450,1,72.0,1,2,2,K,6,0,0
1,5,2,43,496,1,557,1,50,1,346.0,1,2,2,G,3,0,0
1,5,2,44,611,1,705,1,2000,2,-1389.0,2,2,1,4,8,0,0
1,5,2,45,493,1,516,1,2000,1,-1507.0,1,2,2,U,8,0,0
1,5,2,46,600,1,447,1,1000,3,-400.0,1,1,1,A,I,0,0
1,5,2,47,613,1,460,1,2000,3,-1387.0,1,1,1,R,U,0,0
1,5,2,48,1024,0,1437,1,450,3,574.0,1,1,1,U,E,0,0
1,5,2,49,579,1,712,1,50,3,429.0,1,1,1,K,A,0,0
1,5,2,50,687,0,519,1,1000,4,-313.0,2,1,2,9,A,0,0
1,5,2,51,514,1,577,1,1000,1,-486.0,1,2,2,U,3,0,0
1,5,2,52,481,1,535,1,50,2,331.0,2,2,1,3,9,0,0
1,5,2,53,587,1,434,1,1000,3,-413.0,1,1,1,A,E,0,0
1,5,2,54,497,1,432,1,2000,3,-1503.0,1,1,1,E,U,0,0
1,5,2,55,853,1,961,1,50,1,703.0,1,2,2,G,4,0,0
1,5,2,56,510,1,665,1,50,4,360.0,2,1,2,9,M,0,0
1,5,2,57,564,1,436,1,1000,2,-436.0,2,2,1,4,1,0,0
1,5,2,58,1025,1,870,1,450,1,575.0,1,2,2,U,6,0,0
1,5,2,59,554,1,711,1,50,3,404.0,1,1,1,I,K,0,0
1,5,2,60,575,1,375,1,2000,2,-1425.0,2,2,1,1,3,0,0
1,5,2,61,621,1,534,1,450,2,171.0,2,2,1,3,1,0,0
1,5,2,62,533,1,496,1,450,4,83.0,2,1,2,2,R,0,0
1,5,2,63,525,1,484,1,2000,3,-1475.0,1,1,1,M,G,0,0
1,5,2,64,488,1,645,1,50,4,338.0,2,1,2,3,E,0,0
1,5,2,65,575,1,550,1,1000,4,-425.0,2,1,2,8,R,0,0
2,1,1,1,25541,1,30273,1,450,2,25091.0,2,2,1,6,9,0,0
2,1,1,2,8102,1,9724,1,50,3,7952.0,1,1,1,K,G,0,0
2,1,1,3,7347,1,8467,0,50,1,7197.0,1,2,2,G,3,0,0
2,1,1,4,9586,1,12784,0,50,4,9436.0,2,1,2,1,A,0,0
2,1,1,5,4477,0,5661,1,450,3,4027.0,1,1,1,U,G,0,0
2,1,1,6,2136,1,2785,1,2000,2,136.0,2,2,1,6,1,0,0
2,1,1,7,12342,1,14120,1,450,4,11892.0,2,1,2,8,M,0,0
2,1,1,8,5778,1,6533,1,2000,1,3778.0,1,2,2,U,6,0,0
2,1,1,9,19483,1,24449,1,1000,3,18483.0,1,1,1,A,G,0,0
2,1,1,10,2439,0,3276,1,1000,1,1439.0,1,2,2,U,9,0,0
2,1,1,11,3067,1,4162,1,2000,4,1067.0,2,1,2,6,E,0,0
2,1,1,12,1996,1,3113,1,50,2,1846.0,2,2,1,4,7,0,0
2,1,1,13,2127,1,3264,1,2000,3,127.0,1,1,1,A,U,0,0
2,1,1,14,2755,1,4582,1,450,1,2305.0,1,2,2,A,4,0,0
2,1,1,15,1841,1,1304,1,1000,2,841.0,2,2,1,2,4,0,0
2,1,1,16,1107,1,1409,1,1000,4,107.0,2,1,2,3,E,0,0
2,1,1,17,1585,1,1979,1,50,2,1435.0,2,2,1,9,4,0,0
2,1,1,18,3801,1,3610,1,1000,3,2801.0,1,1,1,E,U,0,0
2,1,1,19,3007,1,3054,1,1000,1,2007.0,1,2,2,A,8,0,0
2,1,1,20,1220,1,2408,1,50,4,1070.0,2,1,2,2,M,0,0
2,1,1,21,1532,1,2172,1,50,1,1382.0,1,2,2,R,8,0,0
2,1,1,22,6045,1,5232,1,2000,2,4045.0,2,2,1,9,7,0,0
2,1,1,23,859,1,1321,1,450,4,409.0,2,1,2,3,R,0,0
2,1,1,24,1531,1,2570,1,50,3,1381.0,1,1,1,I,A,0,0
2,2,2,1,704,1,689,1,450,2,254.0,2,2,1,4,2,0,0
2,2,2,2,761,1,729,1,2000,1,-1239.0,1,2,2,A,9,0,0
2,2,2,3,788,1,515,1,1000,2,-212.0,2,2,1,6,2,0,0
2,2,2,4,1741,1,2073,0,450,3,1291.0,1,1,1,K,U,0,0
2,2,2,5,998,1,1377,1,450,1,548.0,1,2,2,A,3,0,0
2,2,2,6,1628,0,1299,1,2000,1,-372.0,1,2,2,M,6,0,0
2,2,2,7,655,1,639,1,1000,4,-345.0,2,1,2,2,R,0,0
2,2,2,8,1804,0,3690,1,50,2,1654.0,2,2,1,1,8,0,0
2,2,2,9,810,1,938,1,2000,2,-1190.0,2,2,1,8,9,0,0
2,2,2,10,3474,1,2521,1,2000,4,1474.0,2,1,2,9,M,0,0
2,2,2,11,2140,1,2106,1,2000,3,140.0,1,1,1,E,I,0,0
2,2,2,12,1446,0,2444,1,50,4,1296.0,2,1,2,7,R,0,0
2,2,2,13,854,1,1342,1,450,4,404.0,2,1,2,7,U,0,0
2,2,2,14,1468,1,2438,1,50,1,1318.0,1,2,2,G,9,0,0
2,2,2,15,2091,1,1752,1,1000,3,1091.0,1,1,1,U,I,0,0
2,2,2,16,2586,1,2284,1,1000,2,1586.0,2,2,1,3,1,0,0
2,2,2,17,1198,1,757,1,2000,4,-802.0,2,1,2,4,A,0,0
2,2,2,18,2286,0,3248,1,1000,1,1286.0,1,2,2,G,7,0,0
2,2,2,19,1291,1,1648,1,450,1,841.0,1,2,2,U,8,0,0
2,2,2,20,1389,1,1528,1,450,2,939.0,2,2,1,9,1,0,0
2,2,2,21,1523,1,2675,1,50,1,1373.0,1,2,2,M,8,0,0
2,2,2,22,4609,1,4482,1,1000,1,3609.0,1,2,2,M,4,0,0
2,2,2,23,2948,1,3620,1,50,3,2798.0,1,1,1,K,I,0,0
2,2,2,24,893,1,1140,1,1000,4,-107.0,2,1,2,9,R,0,0
2,2,2,25,718,1,661,1,2000,3,-1282.0,1,1,1,K,A,0,0
2,2,2,26,763,1,2156,1,450,3,313.0,1,1,1,R,G,0,0
2,2,2,27,1497,1,1724,1,450,1,1047.0,1,2,2,I,3,0,0
2,2,2,28,1161,1,952,1,2000,1,-839.0,1,2,2,E,7,0,0
2,2,2,29,1642,0,2113,1,2000,4,-358.0,2,1,2,6,G,0,0
2,2,2,30,357,1,1228,1,1000,2,-643.0,2,2,1,6,4,0,0
2,2,2,31,459,1,861,1,50,2,309.0,2,2,1,6,7,0,0
2,2,2,32,729,1,1161,1,2000,2,-1271.0,2,2,1,9,8,0,0
2,2,2,33,1153,1,1833,1,2000,3,-847.0,1,1,1,K,R,0,0
2,2,2,34,1398,1,1737,1,450,3,948.0,1,1,1,E,G,0,0
2,2,2,35,2013,0,3439,1,450,2,1563.0,2,2,1,3,7,0,0
2,2,2,36,585,1,1097,1,2000,2,-1415.0,2,2,1,1,4,0,0
2,2,2,37,892,0,1757,1,50,3,742.0,1,1,1,M,I,0,0
2,2,2,38,1934,1,1486,1,1000,3,934.0,1,1,1,I,U,0,0
2,2,2,39,656,1,1334,1,50,2,506.0,2,2,1,2,9,0,0
2,2,2,40,1666,1,1871,1,450,1,1216.0,1,2,2,U,1,0,0
2,2,2,41,1083,1,1391,1,450,2,633.0,2,2,1,7,2,0,0
2,2,2,42,735,0,1073,0,50,1,585.0,1,2,2,R,1,0,0
2,2,2,43,1443,1,1474,1,450,3,993.0,1,1,1,A,K,0,0
2,2,2,44,902,1,693,1,2000,1,-1098.0,1,2,2,K,9,0,0
2,2,2,45,961,1,1200,1,1000,4,-39.0,2,1,2,8,R,0,0
2,2,2,46,1335,1,2429,1,450,4,885.0,2,1,2,7,I,0,0
2,2,2,47,538,1,666,0,1000,2,-462.0,2,2,1,2,1,0,0
2,2,2,48,927,0,1318,1,1000,3,-73.0,1,1,1,G,I,0,0
2,2,2,49,769,0,944,1,1000,1,-231.0,1,2,2,G,4,0,0
2,2,2,50,907,1,570,1,2000,2,-1093.0,2,2,1,4,9,0,0
2,2,2,51,906,1,1737,1,50,4,756.0,2,1,2,4,K,0,0
2,2,2,52,1388,0,2050,1,50,3,1238.0,1,1,1,M,G,0,0
2,2,2,53,826,1,1751,1,450,4,376.0,2,1,2,4,E,0,0
2,2,2,54,943,0,1534,1,450,1,493.0,1,2,2,M,2,0,0
2,2,2,55,1559,0,774,1,2000,3,-441.0,1,1,1,R,K,0,0
2,2,2,56,631,0,1197,1,50,4,481.0,2,1,2,9,U,0,0
2,2,2,57,694,1,1482,1,50,1,544.0,1,2,2,A,6,0,0
2,2,2,58,844,1,787,1,1000,4,-156.0,2,1,2,7,A,0,0
2,2,2,59,683,1,1210,1,1000,2,-317.0,2,2,1,9,3,0,0
2,2,2,60,834,1,752,1,2000,4,-1166.0,2,1,2,1,K,0,0
2,2,2,61,897,1,1148,1,450,4,447.0,2,1,2,8,I,0,0
2,2,2,62,664,1,759,1,1000,4,-336.0,2,1,2,1,E,0,0
2,2,2,63,712,0,1933,1,50,3,562.0,1,1,1,U,R,0,0
2,2,2,64,868,0,1507,1,1000,3,-132.0,1,1,1,I,G,0,0
2,2,2,65,735,1,1533,0,450,2,285.0,2,2,1,1,2,0,0
2,3,2,1,870,1,1147,1,50,2,720.0,2,2,1,2,8,0,0
2,3,2,2,634,1,752,1,1000,2,-366.0,2,2,1,7,4,0,0
2,3,2,3,803,1,761,1,2000,4,-1197.0,2,1,2,3,I,0,0
2,3,2,4,1402,0,2049,1,450,3,952.0,1,1,1,U,K,0,0
2,3,2,5,653,1,692,1,2000,2,-1347.0,2,2,1,1,9,0,0
2,3,2,6,680,1,624,1,2000,1,-1320.0,1,2,2,K,7,0,0
2,3,2,7,550,1,855,1,50,4,400.0,2,1,2,2,G,0,0
2,3,2,8,652,0,747,1,1000,4,-348.0,2,1,2,1,I,0,0
2,3,2,9,989,0,964,1,1000,1,-11.0,1,2,2,E,6,0,0
2,3,2,10,653,1,997,1,450,2,203.0,2,2,1,7,3,0,0
2,3,2,11,1562,1,673,1,2000,3,-438.0,1,1,1,I,E,0,0
2,3,2,12,645,1,749,1,450,1,195.0,1,2,2,U,3,0,0
2,3,2,13,539,1,970,1,50,3,389.0,1,1,1,I,K,0,0
2,3,2,14,924,1,1080,1,450,4,474.0,2,1,2,1,G,0,0
2,3,2,15,669,1,1136,1,50,4,519.0,2,1,2,6,R,0,0
2,3,2,16,679,1,1164,1,50,2,529.0,2,2,1,1,3,0,0
2,3,2,17,976,1,847,1,1000,3,-24.0,1,1,1,R,E,0,0
2,3,2,18,581,1,1068,1,50,1,431.0,1,2,2,E,9,0,0
2,3,2,19,587,1,802,1,2000,4,-1413.0,2,1,2,2,A,0,0
2,3,2,20,793,1,1532,1,50,4,643.0,2,1,2,3,G,0,0
2,3,2,21,780,1,1006,0,450,2,330.0,2,2,1,3,8,0,0
2,3,2,22,1920,1,2260,1,50,2,1770.0,2,2,1,8,6,0,0
2,3,2,23,926,1,717,1,1000,1,-74.0,1,2,2,I,8,0,0
2,3,2,24,984,1,576,1,2000,1,-1016.0,1,2,2,R,4,0,0
2,3,2,25,526,1,828,1,450,1,76.0,1,2,2,A,7,0,0
2,3,2,26,770,1,617,1,1000,2,-230.0,2,2,1,7,8,0,0
2,3,2,27,736,1,719,1,2000,3,-1264.0,1,1,1,G,U,0,0
2,3,2,28,522,0,633,1,2000,2,-1478.0,2,2,1,7,6,0,0
2,3,2,29,447,1,708,1,450,4,-3.0,2,1,2,7,E,0,0
2,3,2,30,568,0,519,0,2000,4,-1432.0,2,1,2,7,G,0,0
2,3,2,31,681,1,675,1,450,3,231.0,1,1,1,E,R,0,0
2,3,2,32,2329,0,2765,1,1000,4,1329.0,2,1,2,8,G,0,0
2,3,2,33,858,1,785,1,2000,1,-1142.0,1,2,2,G,1,0,0
2,3,2,34,682,1,617,1,1000,3,-318.0,1,1,1,U,A,0,0
2,3,2,35,488,1,944,1,2000,3,-1512.0,1,1,1,I,M,0,0
2,3,2,36,1217,0,1698,1,50,3,1067.0,1,1,1,R,A,0,0
2,3,2,37,997,1,1111,1,450,3,547.0,1,1,1,E,A,0,0
2,3,2,38,814,0,524,1,1000,2,-186.0,2,2,1,7,9,0,0
2,3,2,39,758,1,975,1,50,2,608.0,2,2,1,6,8,0,0
2,3,2,40,654,1,1107,1,50,1,504.0,1,2,2,K,8,0,0
2,3,2,41,1179,0,842,1,2000,4,-821.0,2,1,2,7,M,0,0
2,3,2,42,783,1,984,1,50,3,633.0,1,1,1,U,E,0,0
2,3,2,43,784,1,599,1,1000,1,-216.0,1,2,2,R,6,0,0
2,3,2,44,574,0,581,1,1000,3,-426.0,1,1,1,M,A,0,0
2,3,2,45,1413,0,1609,1,1000,4,413.0,2,1,2,8,K,0,0
2,3,2,46,427,1,475,1,2000,2,-1573.0,2,2,1,4,6,0,0
2,3,2,47,383,1,880,1,50,4,233.0,2,1,2,6,A,0,0
2,3,2,48,509,1,525,1,2000,1,-1491.0,1,2,2,I,4,0,0
2,3,2,49,560,1,423,1,1000,1,-440.0,1,2,2,E,4,0,0
2,3,2,50,837,1,813,1,450,2,387.0,2,2,1,7,1,0,0
2,3,2,51,697,0,680,0,2000,3,-1303.0,1,1,1,R,U,0,0
2,3,2,52,660,1,963,1,450,4,210.0,2,1,2,4,G,0,0
2,3,2,53,817,1,893,1,450,1,367.0,1,2,2,K,2,0,0
2,3,2,54,496,1,865,1,450,3,46.0,1,1,1,A,R,0,0
2,3,2,55,746,1,561,1,1000,2,-254.0,2,2,1,9,2,0,0
2,3,2,56,1714,1,2313,1,50,1,1564.0,1,2,2,R,3,0,0
2,3,2,57,557,1,1597,1,50,2,407.0,2,2,1,8,7,0,0
2,3,2,58,406,1,893,1,1000,4,-594.0,2,1,2,6,K,0,0
2,3,2,59,746,1,857,1,1000,3,-254.0,1,1,1,R,I,0,0
2,3,2,60,934,1,883,1,450,3,484.0,1,1,1,G,R,0,0
2,3,2,61,1367,1,1190,0,2000,1,-633.0,1,2,2,I,7,0,0
2,3,2,62,597,1,1036,1,50,1,447.0,1,2,2,I,9,0,0
2,3,2,63,556,1,891,0,50,4,406.0,2,1,2,8,U,0,0
2,3,2,64,904,1,712,1,450,2,454.0,2,2,1,8,2,0,0
2,3,2,65,800,1,543,1,2000,2,-1200.0,2,2,1,3,9,0,0
2,4,2,1,530,1,497,0,1000,1,-470.0,1,2,2,A,1,0,0
2,4,2,2,502,1,797,0,2000,3,-1498.0,1,1,1,A,I,0,0
2,4,2,3,579,1,604,1,450,2,129.0,2,2,1,3,2,0,0
2,4,2,4,616,1,572,1,450,4,166.0,2,1,2,2,I,0,0
2,4,2,5,781,1,588,1,2000,2,-1219.0,2,2,1,1,7,0,0
2,4,2,6,796,1,954,1,50,3,646.0,1,1,1,G,M,0,0
2,4,2,7,558,1,611,1,450,1,108.0,1,2,2,R,9,0,0
2,4,2,8,538,1,457,1,2000,4,-1462.0,2,1,2,9,K,0,0
2,4,2,9,582,1,717,1,50,4,432.0,2,1,2,7,K,0,0
2,4,2,10,697,1,529,1,2000,3,-1303.0,1,1,1,G,A,0,0
2,4,2,11,697,1,548,1,450,4,247.0,2,1,2,3,K,0,0
2,4,2,12,688,1,423,0,2000,1,-1312.0,1,2,2,E,1,0,0
2,4,2,13,430,1,597,1,1000,2,-570.0,2,2,1,4,3,0,0
2,4,2,14,1100,1,563,1,1000,1,100.0,1,2,2,U,4,0,0
2,4,2,15,476,1,694,1,50,2,326.0,2,2,1,8,1,0,0
2,4,2,16,753,1,576,1,1000,2,-247.0,2,2,1,9,6,0,0
2,4,2,17,992,1,1274,1,50,1,842.0,1,2,2,K,3,0,0
2,4,2,18,535,1,390,0,1000,3,-465.0,1,1,1,K,E,0,0
2,4,2,19,1022,1,493,1,2000,4,-978.0,2,1,2,6,M,0,0
2,4,2,20,632,1,907,1,450,1,182.0,1,2,2,G,8,0,0
2,4,2,21,616,1,583,0,2000,1,-1384.0,1,2,2,M,1,0,0
2,4,2,22,727,1,582,1,1000,4,-273.0,2,1,2,8,A,0,0
2,4,2,23,335,1,436,1,450,2,-115.0,2,2,1,8,4,0,0
2,4,2,24,497,1,599,1,50,2,347.0,2,2,1,2,6,0,0
2,4,2,25,633,1,689,1,50,3,483.0,1,1,1,K,M,0,0
2,4,2,26,573,1,685,1,2000,2,-1427.0,2,2,1,4,1,0,0
2,4,2,27,1104,1,1808,1,450,4,654.0,2,1,2,6,U,0,0
2,4,2,28,563,1,586,1,1000,4,-437.0,2,1,2,2,K,0,0
2,4,2,29,522,1,516,1,450,3,72.0,1,1,1,U,M,0,0
2,4,2,30,537,0,633,1,450,1,87.0,1,2,2,G,6,0,0
2,4,2,31,661,1,508,1,1000,1,-339.0,1,2,2,K,4,0,0
2,4,2,32,560,1,695,1,2000,4,-1440.0,2,1,2,9,G,0,0
2,4,2,33,635,1,466,0,1000,2,-365.0,2,2,1,8,3,0,0
2,4,2,34,918,1,1392,1,50,1,768.0,1,2,2,R,7,0,0
2,4,2,35,590,1,573,1,1000,1,-410.0,1,2,2,M,9,0,0
2,4,2,36,598,1,469,1,2000,3,-1402.0,1,1,1,M,R,0,0
2,4,2,37,369,1,564,1,50,1,219.0,1,2,2,M,3,0,0
2,4,2,38,619,1,586,1,2000,2,-1381.0,2,2,1,2,3,0,0
2,4,2,39,513,1,871,1,50,3,363.0,1,1,1,G,E,0,0
2,4,2,40,382,1,766,1,50,2,232.0,2,2,1,6,3,0,0
2,4,2,41,575,1,908,1,450,2,125.0,2,2,1,3,6,0,0
2,4,2,42,582,0,1342,1,50,4,432.0,2,1,2,8,E,0,0
2,4,2,43,657,1,608,1,1000,4,-343.0,2,1,2,3,M,0,0
2,4,2,44,623,1,1518,1,1000,3,-377.0,1,1,1,R,M,0,0
2,4,2,45,785,1,576,1,2000,4,-1215.0,2,1,2,3,A,0,0
2,4,2,46,664,1,683,1,450,1,214.0,1,2,2,I,2,0,0
2,4,2,47,554,1,746,1,2000,1,-1446.0,1,2,2,R,2,0,0
2,4,2,48,1331,0,1582,1,450,3,881.0,1,1,1,G,K,0,0
2,4,2,49,568,1,842,1,50,3,418.0,1,1,1,I,R,0,0
2,4,2,50,511,1,518,1,2000,3,-1489.0,1,1,1,M,K,0,0
2,4,2,51,495,1,971,1,50,2,345.0,2,2,1,4,8,0,0
2,4,2,52,409,1,398,0,450,2,-41.0,2,2,1,2,7,0,0
2,4,2,53,486,1,453,1,450,3,36.0,1,1,1,E,K,0,0
2,4,2,54,568,1,663,1,1000,3,-432.0,1,1,1,A,E,0,0
2,4,2,55,884,1,1133,1,50,3,734.0,1,1,1,M,U,0,0
2,4,2,56,1077,1,1417,1,50,1,927.0,1,2,2,K,6,0,0
2,4,2,57,1006,1,1229,1,2000,2,-994.0,2,2,1,3,4,0,0
2,4,2,58,732,1,1147,1,2000,1,-1268.0,1,2,2,I,1,0,0
2,4,2,59,604,1,717,1,450,4,154.0,2,1,2,6,I,0,0
2,4,2,60,420,0,635,1,1000,2,-580.0,2,2,1,1,6,0,0
2,4,2,61,744,1,844,1,50,4,594.0,2,1,2,4,I,0,0
2,4,2,62,631,1,686,1,1000,4,-369.0,2,1,2,3,U,0,0
2,4,2,63,618,1,609,1,1000,3,-382.0,1,1,1,M,E,0,0
2,4,2,64,1512,1,1589,1,50,4,1362.0,2,1,2,4,U,0,0
2,4,2,65,529,1,507,1,450,1,79.0,1,2,2,I,6,0,0
2,5,2,1,390,1,595,1,450,4,-60.0,2,1,2,2,U,0,0
2,5,2,2,674,0,929,1,1000,1,-326.0,1,2,2,G,2,0,0
2,5,2,3,435,1,557,1,50,1,285.0,1,2,2,E,2,0,0
2,5,2,4,373,1,460,1,2000,1,-1627.0,1,2,2,A,2,0,0
2,5,2,5,1145,0,2161,1,450,3,695.0,1,1,1,A,M,0,0
2,5,2,6,519,1,486,1,1000,1,-481.0,1,2,2,U,2,0,0
2,5,2,7,427,1,514,1,2000,3,-1573.0,1,1,1,E,M,0,0
2,5,2,8,996,1,821,1,450,2,546.0,2,2,1,3,9,0,0
2,5,2,9,632,1,623,1,2000,4,-1368.0,2,1,2,9,A,0,0
2,5,2,10,725,1,750,1,50,3,575.0,1,1,1,G,R,0,0
2,5,2,11,511,1,843,1,50,4,361.0,2,1,2,4,M,0,0
2,5,2,12,1157,1,515,1,1000,2,157.0,2,2,1,8,2,0,0
2,5,2,13,638,1,704,1,450,3,188.0,1,1,1,G,U,0,0
2,5,2,14,710,1,981,1,450,1,260.0,1,2,2,U,7,0,0
2,5,2,15,668,1,620,1,2000,4,-1332.0,2,1,2,9,I,0,0
2,5,2,16,530,1,920,1,50,1,380.0,1,2,2,E,3,0,0
2,5,2,17,1100,1,1381,1,50,2,950.0,2,2,1,9,2,0,0
2,5,2,18,878,1,573,0,2000,1,-1122.0,1,2,2,M,7,0,0
2,5,2,19,558,1,581,1,1000,4,-442.0,2,1,2,2,E,0,0
2,5,2,20,710,1,333,1,2000,2,-1290.0,2,2,1,6,2,0,0
2,5,2,21,671,1,894,0,1000,1,-329.0,1,2,2,K,1,0,0
2,5,2,22,579,1,738,1,1000,2,-421.0,2,2,1,4,8,0,0
2,5,2,23,420,1,539,1,2000,2,-1580.0,2,2,1,2,6,0,0
2,5,2,24,676,1,668,1,2000,3,-1324.0,1,1,1,K,A,0,0
2,5,2,25,776,1,826,1,50,2,626.0,2,2,1,7,3,0,0
2,5,2,26,655,1,760,1,450,4,205.0,2,1,2,9,E,0,0
2,5,2,27,597,1,524,1,1000,4,-403.0,2,1,2,4,R,0,0
2,5,2,28,623,1,581,1,1000,3,-377.0,1,1,1,K,E,0,0
2,5,2,29,893,0,1120,0,50,4,743.0,2,1,2,1,M,0,0
2,5,2,30,569,1,537,1,2000,4,-1431.0,2,1,2,1,R,0,0
2,5,2,31,850,1,671,1,450,2,400.0,2,2,1,8,6,0,0
2,5,2,32,642,1,577,1,1000,2,-358.0,2,2,1,9,4,0,0
2,5,2,33,602,1,868,1,50,3,452.0,1,1,1,I,R,0,0
2,5,2,34,510,1,741,1,450,1,60.0,1,2,2,E,8,0,0
2,5,2,35,620,1,1133,1,450,4,170.0,2,1,2,1,U,0,0
2,5,2,36,556,1,467,1,1000,4,-444.0,2,1,2,6,R,0,0
2,5,2,37,591,1,867,1,450,3,141.0,1,1,1,M,I,0,0
2,5,2,38,1152,0,2435,1,50,2,1002.0,2,2,1,3,7,0,0
2,5,2,39,494,1,485,1,450,2,44.0,2,2,1,6,4,0,0
2,5,2,40,671,1,899,1,50,4,521.0,2,1,2,9,R,0,0
2,5,2,41,531,1,506,1,2000,1,-1469.0,1,2,2,E,3,0,0
2,5,2,42,870,1,605,1,1000,1,-130.0,1,2,2,G,7,0,0
2,5,2,43,596,1,790,1,450,1,146.0,1,2,2,I,7,0,0
2,5,2,44,914,0,633,1,2000,2,-1086.0,2,2,1,6,7,0,0
2,5,2,45,895,1,956,1,50,1,745.0,1,2,2,R,9,0,0
2,5,2,46,674,1,809,1,1000,3,-326.0,1,1,1,R,U,0,0
2,5,2,47,617,1,472,1,2000,3,-1383.0,1,1,1,R,A,0,0
2,5,2,48,819,1,1070,1,50,3,669.0,1,1,1,E,K,0,0
2,5,2,49,545,1,576,1,2000,3,-1455.0,1,1,1,I,M,0,0
2,5,2,50,465,1,792,1,2000,4,-1535.0,2,1,2,4,U,0,0
2,5,2,51,664,1,1003,1,450,1,214.0,1,2,2,K,8,0,0
2,5,2,52,380,1,682,1,50,2,230.0,2,2,1,4,3,0,0
2,5,2,53,641,1,576,1,1000,3,-359.0,1,1,1,A,I,0,0
2,5,2,54,840,1,996,1,450,3,390.0,1,1,1,G,E,0,0
2,5,2,55,533,1,676,1,50,1,383.0,1,2,2,E,8,0,0
2,5,2,56,354,1,535,1,450,4,-96.0,2,1,2,2,A,0,0
2,5,2,57,584,1,645,1,450,2,134.0,2,2,1,6,3,0,0
2,5,2,58,499,1,530,1,1000,1,-501.0,1,2,2,E,7,0,0
2,5,2,59,948,1,1075,1,50,3,798.0,1,1,1,K,R,0,0
2,5,2,60,578,1,610,1,1000,2,-422.0,2,2,1,2,4,0,0
2,5,2,61,377,1,441,1,2000,2,-1623.0,2,2,1,2,7,0,0
2,5,2,62,719,1,550,1,1000,4,-281.0,2,1,2,8,G,0,0
2,5,2,63,600,1,543,1,1000,3,-400.0,1,1,1,A,M,0,0
2,5,2,64,1679,1,2118,1,50,4,1529.0,2,1,2,1,I,0,0
2,5,2,65,596,1,459,1,2000,4,-1404.0,2,1,2,6,M,0,0
3,1,1,1,1991,1,6781,1,1000,1,991.0,1,2,2,R,3,0,0
3,1,1,2,3470,1,5167,1,450,3,3020.0,1,1,1,G,R,0,0
3,1,1,3,1692,1,2603,0,1000,2,692.0,2,2,1,3,9,0,0
3,1,1,4,2082,1,3128,1,1000,4,1082.0,2,1,2,2,R,0,0
3,1,1,5,3764,1,2825,1,2000,3,1764.0,1,1,1,G,K,0,0
3,1,1,6,1648,1,1587,1,450,2,1198.0,2,2,1,8,7,0,0
3,1,1,7,1596,1,3862,1,450,4,1146.0,2,1,2,3,E,0,0
3,1,1,8,1470,0,2687,1,450,1,1020.0,1,2,2,K,4,0,0
3,1,1,9,4359,1,6962,0,50,2,4209.0,2,2,1,7,4,0,0
3,1,1,10,2411,1,1485,1,2000,4,411.0,2,1,2,7,R,0,0
3,1,1,11,2221,1,2008,1,2000,1,221.0,1,2,2,A,2,0,0
3,1,1,12,4203,1,7518,1,1000,3,3203.0,1,1,1,G,I,0,0
3,1,1,13,1727,1,950,1,2000,2,-273.0,2,2,1,2,7,0,0
3,1,1,14,1534,1,2320,1,50,3,1384.0,1,1,1,U,M,0,0
3,1,1,15,1458,1,3034,0,50,1,1308.0,1,2,2,G,9,0,0
3,1,1,16,1160,1,1971,1,50,4,1010.0,2,1,2,8,K,0,0
3,1,1,17,1121,1,1331,0,450,1,671.0,1,2,2,A,9,0,0
3,1,1,18,1992,0,3032,1,1000,4,992.0,2,1,2,8,U,0,0
3,1,1,19,2086,0,2583,1,1000,3,1086.0,1,1,1,M,U,0,0
3,1,1,20,1605,1,2119,1,450,2,1155.0,2,2,1,3,6,0,0
3,1,1,21,908,1,1277,1,50,4,758.0,2,1,2,7,M,0,0
3,1,1,22,1264,1,1886,1,50,1,1114.0,1,2,2,G,4,0,0
3,1,1,23,765,1,788,1,2000,3,-1235.0,1,1,1,G,M,0,0
3,1,1,24,1332,1,1868,1,50,2,1182.0,2,2,1,4,6,0,0
3,2,2,1,1325,1,1164,1,1000,2,325.0,2,2,1,2,3,0,0
3,2,2,2,789,1,1059,0,1000,1,-211.0,1,2,2,U,9,0,0
3,2,2,3,657,1,641,1,2000,2,-1343.0,2,2,1,6,2,0,0
3,2,2,4,781,1,1147,1,50,3,631.0,1,1,1,R,E,0,0
3,2,2,5,895,1,991,1,2000,1,-1105.0,1,2,2,K,7,0,0
3,2,2,6,790,1,1233,1,450,1,340.0,1,2,2,G,6,0,0
3,2,2,7,746,1,745,1,2000,4,-1254.0,2,1,2,4,R,0,0
3,2,2,8,1090,1,1433,1,50,2,940.0,2,2,1,3,4,0,0
3,2,2,9,946,1,698,1,2000,2,-1054.0,2,2,1,1,2,0,0
3,2,2,10,1604,1,2036,1,450,4,1154.0,2,1,2,4,E,0,0
3,2,2,11,1311,1,1310,1,450,3,861.0,1,1,1,I,E,0,0
3,2,2,12,599,1,646,1,2000,4,-1401.0,2,1,2,6,I,0,0
3,2,2,13,1852,1,1413,1,1000,4,852.0,2,1,2,7,U,0,0
3,2,2,14,945,1,1373,1,50,1,795.0,1,2,2,K,3,0,0
3,2,2,15,1130,1,1376,1,50,3,980.0,1,1,1,A,U,0,0
3,2,2,16,1347,1,2007,1,1000,2,347.0,2,2,1,8,9,0,0
3,2,2,17,1369,1,1924,1,50,4,1219.0,2,1,2,9,G,0,0
3,2,2,18,693,1,852,1,1000,1,-307.0,1,2,2,A,3,0,0
3,2,2,19,730,1,754,1,2000,1,-1270.0,1,2,2,I,3,0,0
3,2,2,20,906,1,1269,1,450,2,456.0,2,2,1,8,6,0,0
3,2,2,21,1867,1,2293,1,50,1,1717.0,1,2,2,A,7,0,0
3,2,2,22,601,1,1080,1,2000,1,-1399.0,1,2,2,E,8,0,0
3,2,2,23,757,1,979,1,1000,3,-243.0,1,1,1,M,E,0,0
3,2,2,24,1026,1,1441,1,450,4,576.0,2,1,2,3,U,0,0
3,2,2,25,1148,1,1151,1,450,3,698.0,1,1,1,R,M,0,0
3,2,2,26,682,1,730,1,2000,3,-1318.0,1,1,1,A,M,0,0
3,2,2,27,836,1,1244,1,450,1,386.0,1,2,2,R,2,0,0
3,2,2,28,719,1,702,1,1000,1,-281.0,1,2,2,M,2,0,0
3,2,2,29,610,1,513,1,2000,4,-1390.0,2,1,2,8,A,0,0
3,2,2,30,789,1,492,1,2000,2,-1211.0,2,2,1,8,4,0,0
3,2,2,31,783,1,1414,1,50,2,633.0,2,2,1,9,1,0,0
3,2,2,32,902,1,685,1,1000,2,-98.0,2,2,1,4,3,0,0
3,2,2,33,648,1,763,1,450,3,198.0,1,1,1,G,U,0,0
3,2,2,34,693,1,1200,1,50,3,543.0,1,1,1,I,U,0,0
3,2,2,35,813,1,839,1,450,2,363.0,2,2,1,9,2,0,0
3,2,2,36,888,1,1094,1,50,2,738.0,2,2,1,6,4,0,0
3,2,2,37,1077,1,709,1,2000,3,-923.0,1,1,1,K,E,0,0
3,2,2,38,824,1,559,1,1000,3,-176.0,1,1,1,K,I,0,0
3,2,2,39,584,1,744,1,1000,2,-416.0,2,2,1,4,9,0,0
3,2,2,40,602,1,537,1,2000,1,-1398.0,1,2,2,U,3,0,0
3,2,2,41,675,1,771,1,2000,2,-1325.0,2,2,1,2,8,0,0
3,2,2,42,602,1,641,1,450,1,152.0,1,2,2,G,2,0,0
3,2,2,43,804,1,1017,1,50,3,654.0,1,1,1,U,K,0,0
3,2,2,44,859,1,1029,1,50,1,709.0,1,2,2,R,4,0,0
3,2,2,45,1177,1,1669,1,50,4,1027.0,2,1,2,9,M,0,0
3,2,2,46,632,1,839,1,1000,4,-368.0,2,1,2,4,A,0,0
3,2,2,47,549,1,816,1,450,2,99.0,2,2,1,3,1,0,0
3,2,2,48,704,1,623,1,1000,3,-296.0,1,1,1,K,U,0,0
3,2,2,49,758,1,533,1,1000,1,-242.0,1,2,2,U,7,0,0
3,2,2,50,1614,1,2125,1,50,2,1464.0,2,2,1,9,3,0,0
3,2,2,51,489,1,787,1,450,4,39.0,2,1,2,9,E,0,0
3,2,2,52,751,1,655,1,2000,3,-1249.0,1,1,1,G,E,0,0
3,2,2,53,916,1,684,1,2000,4,-1084.0,2,1,2,2,A,0,0
3,2,2,54,672,1,640,1,2000,1,-1328.0,1,2,2,I,1,0,0
3,2,2,55,660,1,795,1,450,3,210.0,1,1,1,R,K,0,0
3,2,2,56,528,1,824,1,450,4,78.0,2,1,2,4,M,0,0
3,2,2,57,835,1,1230,1,50,1,685.0,1,2,2,G,1,0,0
3,2,2,58,659,1,618,1,1000,4,-341.0,2,1,2,4,G,0,0
3,2,2,59,681,1,936,1,1000,2,-319.0,2,2,1,1,3,0,0
3,2,2,60,586,1,782,1,50,4,436.0,2,1,2,1,G,0,0
3,2,2,61,572,1,611,1,1000,4,-428.0,2,1,2,3,G,0,0
3,2,2,62,1033,1,870,1,450,4,583.0,2,1,2,9,K,0,0
3,2,2,63,739,1,545,1,1000,3,-261.0,1,1,1,I,R,0,0
3,2,2,64,962,1,1103,1,50,3,812.0,1,1,1,M,R,0,0
3,2,2,65,776,1,599,0,2000,2,-1224.0,2,2,1,4,2,0,0
3,3,2,1,708,1,865,0,450,2,258.0,2,2,1,8,3,0,0
3,3,2,2,934,1,1054,1,2000,2,-1066.0,2,2,1,9,6,0,0
3,3,2,3,755,1,634,1,2000,4,-1245.0,2,1,2,2,M,0,0
3,3,2,4,656,1,875,1,450,3,206.0,1,1,1,G,A,0,0
3,3,2,5,784,1,979,1,50,2,634.0,2,2,1,4,1,0,0
3,3,2,6,681,1,588,0,450,1,231.0,1,2,2,A,4,0,0
3,3,2,7,821,1,1282,1,50,4,671.0,2,1,2,7,K,0,0
3,3,2,8,618,1,672,1,450,4,168.0,2,1,2,8,R,0,0
3,3,2,9,676,1,883,1,1000,1,-324.0,1,2,2,K,9,0,0
3,3,2,10,592,1,735,1,1000,2,-408.0,2,2,1,1,8,0,0
3,3,2,11,737,1,729,1,2000,3,-1263.0,1,1,1,I,K,0,0
3,3,2,12,643,1,869,1,50,1,493.0,1,2,2,E,3,0,0
3,3,2,13,585,1,559,1,1000,3,-415.0,1,1,1,I,M,0,0
3,3,2,14,713,1,937,1,1000,4,-287.0,2,1,2,1,K,0,0
3,3,2,15,834,1,1060,1,50,4,684.0,2,1,2,8,I,0,0
3,3,2,16,968,1,846,1,450,2,518.0,2,2,1,6,9,0,0
3,3,2,17,1034,1,896,1,450,3,584.0,1,1,1,A,I,0,0
3,3,2,18,515,1,739,1,2000,1,-1485.0,1,2,2,I,2,0,0
3,3,2,19,669,1,700,1,2000,4,-1331.0,2,1,2,7,A,0,0
3,3,2,20,679,1,896,1,450,4,229.0,2,1,2,6,E,0,0
3,3,2,21,2590,1,2822,1,50,2,2440.0,2,2,1,9,8,0,0
3,3,2,22,1142,1,1334,1,2000,2,-858.0,2,2,1,9,7,0,0
3,3,2,23,1911,0,2249,1,1000,1,911.0,1,2,2,K,1,0,0
3,3,2,24,700,1,905,1,450,1,250.0,1,2,2,E,7,0,0
3,3,2,25,772,1,988,1,2000,1,-1228.0,1,2,2,G,8,0,0
3,3,2,26,1107,1,1081,1,1000,2,107.0,2,2,1,6,3,0,0
3,3,2,27,823,1,581,1,2000,3,-1177.0,1,1,1,U,E,0,0
3,3,2,28,709,1,611,1,450,2,259.0,2,2,1,6,7,0,0
3,3,2,29,577,1,577,0,1000,4,-423.0,2,1,2,8,E,0,0
3,3,2,30,689,1,673,1,2000,4,-1311.0,2,1,2,1,M,0,0
3,3,2,31,741,1,854,1,50,3,591.0,1,1,1,A,G,0,0
3,3,2,32,987,1,1839,1,50,4,837.0,2,1,2,7,E,0,0
3,3,2,33,722,1,889,1,1000,1,-278.0,1,2,2,G,3,0,0
3,3,2,34,668,1,570,1,450,3,218.0,1,1,1,A,R,0,0
3,3,2,35,801,1,827,1,50,3,651.0,1,1,1,I,A,0,0
3,3,2,36,600,1,727,1,1000,3,-400.0,1,1,1,R,A,0,0
3,3,2,37,706,1,417,1,2000,3,-1294.0,1,1,1,K,A,0,0
3,3,2,38,848,1,823,1,1000,2,-152.0,2,2,1,1,9,0,0
3,3,2,39,821,1,814,1,450,2,371.0,2,2,1,7,6,0,0
3,3,2,40,728,1,1132,1,50,1,578.0,1,2,2,U,4,0,0
3,3,2,41,652,1,619,1,2000,4,-1348.0,2,1,2,2,K,0,0
3,3,2,42,881,1,1080,1,50,3,731.0,1,1,1,E,G,0,0
3,3,2,43,558,1,898,1,450,1,108.0,1,2,2,I,8,0,0
3,3,2,44,614,1,749,1,2000,3,-1386.0,1,1,1,M,G,0,0
3,3,2,45,606,1,624,1,450,4,156.0,2,1,2,8,M,0,0
3,3,2,46,529,1,624,1,2000,2,-1471.0,2,2,1,6,8,0,0
3,3,2,47,439,1,526,1,1000,4,-561.0,2,1,2,6,K,0,0
3,3,2,48,1128,1,1612,1,50,1,978.0,1,2,2,U,6,0,0
3,3,2,49,1456,1,592,1,2000,1,-544.0,1,2,2,E,1,0,0
3,3,2,50,1023,1,1102,1,50,2,873.0,2,2,1,2,1,0,0
3,3,2,51,796,1,682,1,1000,3,-204.0,1,1,1,U,G,0,0
3,3,2,52,1134,1,1366,1,50,4,984.0,2,1,2,9,R,0,0
3,3,2,53,919,1,1150,1,450,1,469.0,1,2,2,E,4,0,0
3,3,2,54,581,1,623,1,450,3,131.0,1,1,1,K,M,0,0
3,3,2,55,871,1,809,1,450,2,421.0,2,2,1,1,7,0,0
3,3,2,56,732,1,835,1,1000,1,-268.0,1,2,2,R,9,0,0
3,3,2,57,706,1,609,1,1000,2,-294.0,2,2,1,2,6,0,0
3,3,2,58,753,1,768,1,2000,4,-1247.0,2,1,2,9,A,0,0
3,3,2,59,777,1,520,1,2000,3,-1223.0,1,1,1,E,U,0,0
3,3,2,60,842,1,561,1,1000,3,-158.0,1,1,1,K,G,0,0
3,3,2,61,611,1,666,1,2000,1,-1389.0,1,2,2,M,8,0,0
3,3,2,62,591,1,966,1,1000,1,-409.0,1,2,2,G,7,0,0
3,3,2,63,654,1,711,1,450,4,204.0,2,1,2,1,A,0,0
3,3,2,64,654,1,517,1,2000,2,-1346.0,2,2,1,2,4,0,0
3,3,2,65,783,1,759,1,50,2,633.0,2,2,1,4,8,0,0
3,4,2,1,1286,1,1150,1,450,1,836.0,1,2,2,K,8,0,0
3,4,2,2,540,1,856,1,450,3,90.0,1,1,1,M,A,0,0
3,4,2,3,958,1,533,1,1000,2,-42.0,2,2,1,3,7,0,0
3,4,2,4,726,1,1080,1,50,4,576.0,2,1,2,3,K,0,0
3,4,2,5,578,1,522,0,450,2,128.0,2,2,1,3,8,0,0
3,4,2,6,753,1,853,1,50,3,603.0,1,1,1,E,K,0,0
3,4,2,7,854,1,898,1,50,1,704.0,1,2,2,M,7,0,0
3,4,2,8,674,1,626,0,1000,4,-326.0,2,1,2,2,U,0,0
3,4,2,9,584,1,543,1,2000,4,-1416.0,2,1,2,6,U,0,0
3,4,2,10,592,1,582,1,450,3,142.0,1,1,1,U,A,0,0
3,4,2,11,733,1,982,1,50,4,583.0,2,1,2,6,G,0,0
3,4,2,12,470,1,717,1,1000,1,-530.0,1,2,2,I,4,0,0
3,4,2,13,887,1,1123,1,50,2,737.0,2,2,1,1,6,0,0
3,4,2,14,578,1,626,1,2000,1,-1422.0,1,2,2,R,6,0,0
3,4,2,15,681,1,639,1,2000,2,-1319.0,2,2,1,4,7,0,0
3,4,2,16,637,0,1044,1,1000,2,-363.0,2,2,1,9,4,0,0
3,4,2,17,850,1,875,1,50,1,700.0,1,2,2,I,7,0,0
3,4,2,18,672,1,632,1,2000,3,-1328.0,1,1,1,R,I,0,0
3,4,2,19,805,1,910,1,450,4,355.0,2,1,2,9,U,0,0
3,4,2,20,652,1,811,1,450,1,202.0,1,2,2,E,2,0,0
3,4,2,21,576,1,551,1,2000,1,-1424.0,1,2,2,A,6,0,0
3,4,2,22,537,1,576,1,1000,4,-463.0,2,1,2,6,A,0,0
3,4,2,23,599,1,579,1,450,2,149.0,2,2,1,7,2,0,0
3,4,2,24,820,1,969,1,50,2,670.0,2,2,1,2,9,0,0
3,4,2,25,686,1,813,1,1000,3,-314.0,1,1,1,E,A,0,0
3,4,2,26,509,1,748,1,2000,2,-1491.0,2,2,1,7,8,0,0
3,4,2,27,1237,1,1402,1,50,4,1087.0,2,1,2,1,I,0,0
3,4,2,28,765,1,712,1,450,4,315.0,2,1,2,3,M,0,0
3,4,2,29,996,1,1210,1,50,3,846.0,1,1,1,K,R,0,0
3,4,2,30,741,1,884,1,1000,1,-259.0,1,2,2,E,9,0,0
3,4,2,31,1000,1,1008,1,50,1,850.0,1,2,2,U,8,0,0
3,4,2,32,543,1,775,1,1000,4,-457.0,2,1,2,1,E,0,0
3,4,2,33,703,1,719,1,1000,2,-297.0,2,2,1,7,1,0,0
3,4,2,34,577,1,584,1,450,1,127.0,1,2,2,U,1,0,0
3,4,2,35,655,1,542,1,1000,1,-345.0,1,2,2,A,1,0,0
3,4,2,36,561,1,800,1,1000,3,-439.0,1,1,1,U,I,0,0
3,4,2,37,608,1,743,1,2000,1,-1392.0,1,2,2,R,7,0,0
3,4,2,38,649,1,593,1,2000,2,-1351.0,2,2,1,8,1,0,0
3,4,2,39,737,1,527,1,2000,3,-1263.0,1,1,1,I,G,0,0
3,4,2,40,881,1,888,1,50,2,731.0,2,2,1,6,1,0,0
3,4,2,41,629,1,886,1,450,2,179.0,2,2,1,7,9,0,0
3,4,2,42,887,1,782,1,2000,4,-1113.0,2,1,2,2,E,0,0
3,4,2,43,1045,1,1182,1,450,4,595.0,2,1,2,9,I,0,0
3,4,2,44,1330,1,1392,1,50,3,1180.0,1,1,1,U,R,0,0
3,4,2,45,676,1,691,1,1000,4,-324.0,2,1,2,7,I,0,0
3,4,2,46,590,1,730,1,450,1,140.0,1,2,2,M,6,0,0
3,4,2,47,1172,1,1299,1,50,1,1022.0,1,2,2,E,6,0,0
3,4,2,48,608,1,653,1,450,3,158.0,1,1,1,E,I,0,0
3,4,2,49,610,1,701,1,50,3,460.0,1,1,1,R,G,0,0
3,4,2,50,1150,1,955,1,450,3,700.0,1,1,1,R,U,0,0
3,4,2,51,804,1,667,1,1000,2,-196.0,2,2,1,1,4,0,0
3,4,2,52,751,1,793,1,50,2,601.0,2,2,1,8,2,0,0
3,4,2,53,704,1,631,1,1000,3,-296.0,1,1,1,A,K,0,0
3,4,2,54,622,1,677,1,2000,3,-1378.0,1,1,1,M,K,0,0
3,4,2,55,737,1,746,1,450,3,287.0,1,1,1,A,E,0,0
3,4,2,56,455,1,640,1,450,1,5.0,1,2,2,M,4,0,0
3,4,2,57,657,1,697,1,2000,2,-1343.0,2,2,1,3,2,0,0
3,4,2,58,645,1,572,1,1000,1,-355.0,1,2,2,K,6,0,0
3,4,2,59,1244,1,1288,1,50,4,1094.0,2,1,2,8,G,0,0
3,4,2,60,560,1,799,1,450,2,110.0,2,2,1,7,3,0,0
3,4,2,61,693,1,421,1,2000,4,-1307.0,2,1,2,3,A,0,0
3,4,2,62,1075,1,1164,1,50,4,925.0,2,1,2,7,G,0,0
3,4,2,63,828,1,872,0,50,3,678.0,1,1,1,M,I,0,0
3,4,2,64,681,1,668,1,450,4,231.0,2,1,2,4,U,0,0
3,4,2,65,826,1,1580,1,50,1,676.0,1,2,2,M,1,0,0
3,5,2,1,820,1,635,1,1000,4,-180.0,2,1,2,3,I,0,0
3,5,2,2,897,1,881,1,2000,1,-1103.0,1,2,2,K,2,0,0
3,5,2,3,925,1,1021,1,50,1,775.0,1,2,2,A,8,0,0
3,5,2,4,700,1,491,1,1000,1,-300.0,1,2,2,U,2,0,0
3,5,2,5,575,1,462,0,1000,3,-425.0,1,1,1,E,R,0,0
3,5,2,6,779,1,804,1,450,1,329.0,1,2,2,R,8,0,0
3,5,2,7,592,1,591,1,2000,3,-1408.0,1,1,1,E,M,0,0
3,5,2,8,879,1,622,1,1000,2,-121.0,2,2,1,9,6,0,0
3,5,2,9,621,1,700,1,2000,4,-1379.0,2,1,2,3,R,0,0
3,5,2,10,1559,1,1269,1,450,3,1109.0,1,1,1,I,A,0,0
3,5,2,11,1056,1,1015,1,50,4,906.0,2,1,2,2,I,0,0
3,5,2,12,569,1,695,1,2000,2,-1431.0,2,2,1,2,9,0,0
3,5,2,13,563,1,545,1,50,3,413.0,1,1,1,I,U,0,0
3,5,2,14,670,1,909,1,2000,1,-1330.0,1,2,2,M,9,0,0
3,5,2,15,841,1,1656,1,1000,4,-159.0,2,1,2,1,U,0,0
3,5,2,16,998,1,853,1,1000,1,-2.0,1,2,2,R,1,0,0
3,5,2,17,1202,1,873,1,450,2,752.0,2,2,1,4,9,0,0
3,5,2,18,1146,1,844,1,450,1,696.0,1,2,2,M,3,0,0
3,5,2,19,1276,1,1074,1,450,4,826.0,2,1,2,4,K,0,0
3,5,2,20,1485,1,1662,1,50,2,1335.0,2,2,1,6,2,0,0
3,5,2,21,1595,1,1607,1,50,1,1445.0,1,2,2,I,6,0,0
3,5,2,22,867,1,656,1,450,2,417.0,2,2,1,8,3,0,0
3,5,2,23,1909,1,692,1,2000,2,-91.0,2,2,1,7,3,0,0
3,5,2,24,760,1,744,1,2000,3,-1240.0,1,1,1,R,E,0,0
3,5,2,25,1401,1,1531,1,50,2,1251.0,2,2,1,4,7,0,0
3,5,2,26,1236,1,748,1,2000,4,-764.0,2,1,2,1,R,0,0
3,5,2,27,1245,1,1329,1,50,4,1095.0,2,1,2,6,M,0,0
3,5,2,28,1215,1,900,1,1000,3,215.0,1,1,1,K,M,0,0
3,5,2,29,1369,1,1088,1,450,4,919.0,2,1,2,6,R,0,0
3,5,2,30,1338,1,610,1,2000,4,-662.0,2,1,2,2,G,0,0
3,5,2,31,1097,1,837,1,1000,2,97.0,2,2,1,3,8,0,0
3,5,2,32,685,1,1099,1,450,2,235.0,2,2,1,2,3,0,0
3,5,2,33,1997,1,2331,1,50,3,1847.0,1,1,1,M,A,0,0
3,5,2,34,2167,1,894,0,2000,1,167.0,1,2,2,I,9,0,0
3,5,2,35,722,1,649,1,1000,4,-278.0,2,1,2,4,I,0,0
3,5,2,36,646,1,543,1,450,4,196.0,2,1,2,6,G,0,0
3,5,2,37,557,1,964,1,2000,3,-1443.0,1,1,1,E,I,0,0
3,5,2,38,534,1,525,1,2000,2,-1466.0,2,2,1,6,7,0,0
3,5,2,39,528,1,967,1,1000,2,-472.0,2,2,1,8,6,0,0
3,5,2,40,847,1,830,1,50,4,697.0,2,1,2,7,R,0,0
3,5,2,41,653,1,706,1,50,1,503.0,1,2,2,R,2,0,0
3,5,2,42,769,1,792,1,1000,1,-231.0,1,2,2,E,9,0,0
3,5,2,43,655,1,809,0,450,1,205.0,1,2,2,E,3,0,0
3,5,2,44,1099,1,1155,1,50,2,949.0,2,2,1,1,9,0,0
3,5,2,45,917,1,1237,1,2000,1,-1083.0,1,2,2,U,6,0,0
3,5,2,46,1074,1,767,1,450,3,624.0,1,1,1,A,E,0,0
3,5,2,47,713,1,785,1,1000,3,-287.0,1,1,1,R,K,0,0
3,5,2,48,792,1,605,1,450,3,342.0,1,1,1,G,K,0,0
3,5,2,49,852,1,570,1,1000,3,-148.0,1,1,1,E,K,0,0
3,5,2,50,1363,1,715,1,2000,4,-637.0,2,1,2,9,M,0,0
3,5,2,51,519,1,541,1,1000,1,-481.0,1,2,2,M,7,0,0
3,5,2,52,1278,0,3606,0,450,2,828.0,2,2,1,4,2,0,0
3,5,2,53,836,1,459,1,2000,3,-1164.0,1,1,1,U,E,0,0
3,5,2,54,1192,1,1242,1,50,3,1042.0,1,1,1,I,K,0,0
3,5,2,55,526,1,916,1,450,1,76.0,1,2,2,I,4,0,0
3,5,2,56,846,1,581,1,1000,4,-154.0,2,1,2,2,U,0,0
3,5,2,57,844,1,1024,1,50,2,694.0,2,2,1,9,2,0,0
3,5,2,58,572,1,940,1,2000,1,-1428.0,1,2,2,E,6,0,0
3,5,2,59,597,1,695,1,450,3,147.0,1,1,1,R,U,0,0
3,5,2,60,670,1,805,1,1000,2,-330.0,2,2,1,3,7,0,0
3,5,2,61,828,1,756,1,2000,2,-1172.0,2,2,1,9,3,0,0
3,5,2,62,764,1,1003,1,50,4,614.0,2,1,2,8,R,0,0
3,5,2,63,892,1,2101,1,50,3,742.0,1,1,1,M,R,0,0
3,5,2,64,935,1,630,1,450,4,485.0,2,1,2,3,M,0,0
3,5,2,65,891,1,546,1,2000,4,-1109.0,2,1,2,8,A,0,0
5,1,1,1,2070,1,3535,1,450,4,1620.0,2,1,2,1,K,0,0
5,1,1,2,2077,1,4080,1,50,2,1927.0,2,2,1,7,9,0,0
5,1,1,3,2075,1,3933,1,50,3,1925.0,1,1,1,U,K,0,0
5,1,1,4,1726,1,3101,1,450,1,1276.0,1,2,2,R,8,0,0
5,1,1,5,1983,1,3172,1,450,2,1533.0,2,2,1,3,8,0,0
5,1,1,6,1691,1,2482,1,1000,3,691.0,1,1,1,M,G,0,0
5,1,1,7,3351,1,2535,1,2000,1,1351.0,1,2,2,I,4,0,0
5,1,1,8,1448,1,1384,1,2000,4,-552.0,2,1,2,7,K,0,0
5,1,1,9,1495,1,2312,1,450,3,1045.0,1,1,1,R,I,0,0
5,1,1,10,2031,0,2894,1,50,4,1881.0,2,1,2,3,K,0,0
5,1,1,11,836,0,1532,0,1000,2,-164.0,2,2,1,2,7,0,0
5,1,1,12,1733,1,2396,1,1000,1,733.0,1,2,2,G,6,0,0
5,1,1,13,1509,1,1292,1,2000,3,-491.0,1,1,1,E,G,0,0
5,1,1,14,2639,1,3204,1,1000,4,1639.0,2,1,2,3,G,0,0
5,1,1,15,1206,1,1134,1,2000,2,-794.0,2,2,1,9,8,0,0
5,1,1,16,1871,1,3003,1,50,1,1721.0,1,2,2,U,6,0,0
5,1,1,17,1414,1,2361,1,450,4,964.0,2,1,2,7,M,0,0
5,1,1,18,1452,1,2157,1,1000,3,452.0,1,1,1,E,M,0,0
5,1,1,19,2436,1,1934,1,2000,1,436.0,1,2,2,U,9,0,0
5,1,1,20,941,1,1350,1,50,2,791.0,2,2,1,4,6,0,0
5,1,1,21,1639,1,2162,1,450,1,1189.0,1,2,2,E,2,0,0
5,1,1,22,1406,1,894,1,2000,3,-594.0,1,1,1,G,U,0,0
5,1,1,23,1552,1,2611,1,50,4,1402.0,2,1,2,8,U,0,0
5,1,1,24,2008,0,2031,1,1000,2,1008.0,2,2,1,9,6,0,0
5,2,2,1,955,1,1266,1,2000,2,-1045.0,2,2,1,6,7,0,0
5,2,2,2,1614,1,1659,0,1000,1,614.0,1,2,2,A,9,0,0
5,2,2,3,2010,1,3945,1,450,2,1560.0,2,2,1,4,7,0,0
5,2,2,4,2529,1,3510,1,50,3,2379.0,1,1,1,M,R,0,0
5,2,2,5,964,1,1859,1,50,1,814.0,1,2,2,A,2,0,0
5,2,2,6,1499,1,1458,1,2000,1,-501.0,1,2,2,U,7,0,0
5,2,2,7,1584,1,1080,1,2000,4,-416.0,2,1,2,7,G,0,0
5,2,2,8,1316,1,2892,1,50,2,1166.0,2,2,1,8,1,0,0
5,2,2,9,801,1,1679,0,450,2,351.0,2,2,1,9,7,0,0
5,2,2,10,1186,1,1563,1,1000,4,186.0,2,1,2,8,R,0,0
5,2,2,11,1201,1,2087,1,450,3,751.0,1,1,1,G,I,0,0
5,2,2,12,1121,1,2887,1,50,4,971.0,2,1,2,6,U,0,0
5,2,2,13,1942,1,2510,1,1000,4,942.0,2,1,2,9,E,0,0
5,2,2,14,2008,1,3353,1,50,1,1858.0,1,2,2,G,2,0,0
5,2,2,15,2171,1,4157,1,1000,3,1171.0,1,1,1,R,E,0,0
5,2,2,16,1164,1,1731,1,2000,2,-836.0,2,2,1,7,6,0,0
5,2,2,17,1165,0,2416,1,450,4,715.0,2,1,2,9,M,0,0
5,2,2,18,1944,1,3689,1,1000,1,944.0,1,2,2,K,9,0,0
5,2,2,19,2131,1,2998,1,450,1,1681.0,1,2,2,U,8,0,0
5,2,2,20,1399,1,1861,1,1000,2,399.0,2,2,1,8,6,0,0
5,2,2,21,1123,1,1311,1,1000,1,123.0,1,2,2,G,7,0,0
5,2,2,22,1036,1,860,1,2000,1,-964.0,1,2,2,R,2,0,0
5,2,2,23,825,1,1361,1,2000,3,-1175.0,1,1,1,R,M,0,0
5,2,2,24,1322,1,1370,1,2000,4,-678.0,2,1,2,9,R,0,0
5,2,2,25,2090,1,3253,1,450,3,1640.0,1,1,1,A,U,0,0
5,2,2,26,2037,1,2922,1,50,3,1887.0,1,1,1,K,G,0,0
5,2,2,27,1303,1,2511,1,450,1,853.0,1,2,2,R,7,0,0
5,2,2,28,895,1,1875,1,50,1,745.0,1,2,2,A,8,0,0
5,2,2,29,1916,1,2741,1,50,4,1766.0,2,1,2,9,A,0,0
5,2,2,30,2023,1,972,1,2000,2,23.0,2,2,1,1,8,0,0
5,2,2,31,806,1,1009,1,450,2,356.0,2,2,1,1,6,0,0
5,2,2,32,858,1,1609,1,1000,2,-142.0,2,2,1,2,8,0,0
5,2,2,33,1385,1,880,1,2000,3,-615.0,1,1,1,E,K,0,0
5,2,2,34,1140,1,2060,1,50,3,990.0,1,1,1,E,U,0,0
5,2,2,35,1170,1,1990,1,50,2,1020.0,2,2,1,7,1,0,0
5,2,2,36,1162,1,2147,1,450,2,712.0,2,2,1,8,3,0,0
5,2,2,37,1105,1,836,1,1000,3,105.0,1,1,1,K,M,0,0
5,2,2,38,821,1,1046,1,450,3,371.0,1,1,1,U,A,0,0
5,2,2,39,2319,1,1136,1,2000,2,319.0,2,2,1,4,8,0,0
5,2,2,40,1272,1,1551,1,2000,1,-728.0,1,2,2,E,3,0,0
5,2,2,41,1248,1,1743,1,50,2,1098.0,2,2,1,9,3,0,0
5,2,2,42,1139,1,1509,1,450,1,689.0,1,2,2,A,3,0,0
5,2,2,43,1562,1,1671,1,50,3,1412.0,1,1,1,R,G,0,0
5,2,2,44,929,1,1176,1,1000,1,-71.0,1,2,2,I,9,0,0
5,2,2,45,2505,1,3219,1,450,4,2055.0,2,1,2,9,I,0,0
5,2,2,46,878,1,965,1,1000,4,-122.0,2,1,2,8,A,0,0
5,2,2,47,1133,1,1211,1,1000,2,133.0,2,2,1,1,7,0,0
5,2,2,48,1211,1,1035,1,2000,3,-789.0,1,1,1,U,I,0,0
5,2,2,49,1336,1,2228,1,50,1,1186.0,1,2,2,R,9,0,0
5,2,2,50,1415,1,2066,1,450,2,965.0,2,2,1,9,1,0,0
5,2,2,51,1065,1,976,1,2000,4,-935.0,2,1,2,8,M,0,0
5,2,2,52,856,1,1163,1,450,3,406.0,1,1,1,M,K,0,0
5,2,2,53,829,0,2402,1,50,4,679.0,2,1,2,2,U,0,0
5,2,2,54,1766,1,999,0,2000,1,-234.0,1,2,2,U,1,0,0
5,2,2,55,1725,1,1428,1,1000,3,725.0,1,1,1,A,K,0,0
5,2,2,56,1907,1,1225,1,2000,4,-93.0,2,1,2,2,M,0,0
5,2,2,57,1888,1,2565,1,50,1,1738.0,1,2,2,G,1,0,0
5,2,2,58,1610,1,1443,1,1000,4,610.0,2,1,2,9,K,0,0
5,2,2,59,1174,1,1140,1,1000,2,174.0,2,2,1,3,7,0,0
5,2,2,60,1206,1,1888,1,450,4,756.0,2,1,2,4,E,0,0
5,2,2,61,1245,1,1897,1,50,4,1095.0,2,1,2,3,R,0,0
5,2,2,62,1097,1,1875,1,450,4,647.0,2,1,2,2,E,0,0
5,2,2,63,1227,1,802,1,2000,3,-773.0,1,1,1,I,M,0,0
5,2,2,64,681,1,1136,1,50,3,531.0,1,1,1,U,G,0,0
5,2,2,65,2619,1,2839,1,50,2,2469.0,2,2,1,7,2,0,0
5,3,2,1,1428,1,1412,1,2000,2,-572.0,2,2,1,3,2,0,0
5,3,2,2,1594,1,2058,1,450,2,1144.0,2,2,1,4,1,0,0
5,3,2,3,1421,1,1077,1,2000,4,-579.0,2,1,2,6,M,0,0
5,3,2,4,1329,1,1810,1,450,3,879.0,1,1,1,G,K,0,0
5,3,2,5,1245,1,2074,1,50,2,1095.0,2,2,1,8,7,0,0
5,3,2,6,1387,1,1933,1,1000,1,387.0,1,2,2,I,6,0,0
5,3,2,7,2308,1,2451,1,1000,4,1308.0,2,1,2,6,R,0,0
5,3,2,8,528,1,1183,1,450,4,78.0,2,1,2,4,I,0,0
5,3,2,9,1788,1,2149,1,450,1,1338.0,1,2,2,K,2,0,0
5,3,2,10,1243,1,1122,1,2000,2,-757.0,2,2,1,2,1,0,0
5,3,2,11,1156,0,1713,0,1000,3,156.0,1,1,1,I,A,0,0
5,3,2,12,1742,0,4936,1,50,1,1592.0,1,2,2,U,2,0,0
5,3,2,13,971,1,634,0,2000,3,-1029.0,1,1,1,M,A,0,0
5,3,2,14,2303,1,2089,1,2000,4,303.0,2,1,2,7,E,0,0
5,3,2,15,777,1,1964,1,50,4,627.0,2,1,2,2,A,0,0
5,3,2,16,1283,1,1681,1,1000,2,283.0,2,2,1,4,2,0,0
5,3,2,17,1485,1,2056,1,50,3,1335.0,1,1,1,K,I,0,0
5,3,2,18,1083,1,1361,1,1000,1,83.0,1,2,2,M,1,0,0
5,3,2,19,2378,1,3941,1,1000,4,1378.0,2,1,2,3,U,0,0
5,3,2,20,1555,1,2121,1,50,4,1405.0,2,1,2,1,R,0,0
5,3,2,21,958,1,931,1,450,2,508.0,2,2,1,8,2,0,0
5,3,2,22,741,1,822,1,50,2,591.0,2,2,1,6,8,0,0
5,3,2,23,1004,1,1125,1,450,1,554.0,1,2,2,R,1,0,0
5,3,2,24,572,1,763,1,2000,1,-1428.0,1,2,2,K,8,0,0
5,3,2,25,853,1,788,1,1000,1,-147.0,1,2,2,M,7,0,0
5,3,2,26,1003,1,893,1,1000,2,3.0,2,2,1,7,8,0,0
5,3,2,27,1477,1,1573,0,1000,3,477.0,1,1,1,U,E,0,0
5,3,2,28,1021,1,1021,1,2000,2,-979.0,2,2,1,7,4,0,0
5,3,2,29,1059,1,1106,0,1000,4,59.0,2,1,2,3,E,0,0
5,3,2,30,933,1,1050,1,450,4,483.0,2,1,2,7,A,0,0
5,3,2,31,678,1,934,1,450,3,228.0,1,1,1,K,E,0,0
5,3,2,32,1526,1,973,1,2000,4,-474.0,2,1,2,1,G,0,0
5,3,2,33,790,0,646,1,2000,1,-1210.0,1,2,2,M,2,0,0
5,3,2,34,844,1,1626,1,1000,3,-156.0,1,1,1,A,M,0,0
5,3,2,35,1232,0,2812,1,450,3,782.0,1,1,1,I,E,0,0
5,3,2,36,2108,1,1195,1,2000,3,108.0,1,1,1,K,U,0,0
5,3,2,37,826,1,1212,1,50,3,676.0,1,1,1,M,E,0,0
5,3,2,38,1441,1,2218,1,50,2,1291.0,2,2,1,7,3,0,0
5,3,2,39,706,1,721,1,1000,2,-294.0,2,2,1,3,6,0,0
5,3,2,40,2019,1,2751,1,50,1,1869.0,1,2,2,I,1,0,0
5,3,2,41,1054,1,1778,1,50,4,904.0,2,1,2,2,K,0,0
5,3,2,42,1879,1,1022,1,2000,3,-121.0,1,1,1,U,M,0,0
5,3,2,43,524,1,976,1,450,1,74.0,1,2,2,U,4,0,0
5,3,2,44,1186,1,1443,1,1000,3,186.0,1,1,1,A,I,0,0
5,3,2,45,1647,1,1094,1,2000,4,-353.0,2,1,2,8,K,0,0
5,3,2,46,706,1,1002,1,2000,2,-1294.0,2,2,1,6,1,0,0
5,3,2,47,504,1,641,1,450,4,54.0,2,1,2,6,I,0,0
5,3,2,48,1889,1,1574,1,1000,1,889.0,1,2,2,E,9,0,0
5,3,2,49,529,1,856,1,2000,1,-1471.0,1,2,2,E,1,0,0
5,3,2,50,829,1,950,1,450,2,379.0,2,2,1,9,4,0,0
5,3,2,51,875,1,1516,1,50,3,725.0,1,1,1,R,U,0,0
5,3,2,52,1007,1,996,1,1000,4,7.0,2,1,2,7,U,0,0
5,3,2,53,1957,1,2757,1,50,1,1807.0,1,2,2,I,7,0,0
5,3,2,54,671,1,848,1,450,3,221.0,1,1,1,E,I,0,0
5,3,2,55,857,1,1096,1,50,2,707.0,2,2,1,6,4,0,0
5,3,2,56,1644,1,1932,1,450,1,1194.0,1,2,2,I,2,0,0
5,3,2,57,1675,0,2568,1,450,2,1225.0,2,2,1,2,9,0,0
5,3,2,58,705,1,1263,0,50,4,555.0,2,1,2,4,K,0,0
5,3,2,59,1519,1,679,0,2000,3,-481.0,1,1,1,G,A,0,0
5,3,2,60,994,1,1682,1,450,3,544.0,1,1,1,G,M,0,0
5,3,2,61,900,1,1427,1,1000,1,-100.0,1,2,2,U,3,0,0
5,3,2,62,1401,1,2134,1,450,1,951.0,1,2,2,G,3,0,0
5,3,2,63,904,0,911,1,2000,4,-1096.0,2,1,2,6,A,0,0
5,3,2,64,763,1,1146,1,2000,2,-1237.0,2,2,1,1,4,0,0
5,3,2,65,740,1,915,1,1000,2,-260.0,2,2,1,4,9,0,0
5,4,2,1,1951,1,1198,1,2000,1,-49.0,1,2,2,K,7,0,0
5,4,2,2,637,1,1145,1,50,3,487.0,1,1,1,E,R,0,0
5,4,2,3,1080,1,711,1,2000,2,-920.0,2,2,1,9,2,0,0
5,4,2,4,1938,1,1780,1,450,4,1488.0,2,1,2,3,A,0,0
5,4,2,5,1127,1,936,0,1000,2,127.0,2,2,1,2,3,0,0
5,4,2,6,1288,1,1124,1,1000,3,288.0,1,1,1,I,K,0,0
5,4,2,7,1250,1,2226,1,50,1,1100.0,1,2,2,K,3,0,0
5,4,2,8,1048,0,1981,1,1000,4,48.0,2,1,2,1,I,0,0
5,4,2,9,767,1,1580,1,450,4,317.0,2,1,2,7,R,0,0
5,4,2,10,2628,1,3372,1,450,3,2178.0,1,1,1,I,G,0,0
5,4,2,11,1755,1,1794,1,2000,4,-245.0,2,1,2,6,E,0,0
5,4,2,12,2226,1,2594,1,1000,1,1226.0,1,2,2,R,3,0,0
5,4,2,13,3743,1,4707,1,50,2,3593.0,2,2,1,6,9,0,0
5,4,2,14,1892,1,2638,1,50,1,1742.0,1,2,2,M,6,0,0
5,4,2,15,1827,1,3083,1,450,2,1377.0,2,2,1,1,9,0,0
5,4,2,16,924,1,1100,1,50,2,774.0,2,2,1,1,2,0,0
5,4,2,17,745,1,641,1,2000,1,-1255.0,1,2,2,G,8,0,0
5,4,2,18,431,1,854,1,1000,3,-569.0,1,1,1,K,R,0,0
5,4,2,19,1027,1,1606,1,50,4,877.0,2,1,2,9,G,0,0
5,4,2,20,587,1,1099,1,450,1,137.0,1,2,2,M,9,0,0
5,4,2,21,851,1,874,1,2000,1,-1149.0,1,2,2,K,6,0,0
5,4,2,22,1398,0,1915,1,1000,4,398.0,2,1,2,2,G,0,0
5,4,2,23,720,1,743,1,1000,2,-280.0,2,2,1,8,9,0,0
5,4,2,24,1152,1,1447,1,450,2,702.0,2,2,1,6,2,0,0
5,4,2,25,2531,1,1320,1,2000,3,531.0,1,1,1,A,G,0,0
5,4,2,26,1805,1,940,1,2000,2,-195.0,2,2,1,2,6,0,0
5,4,2,27,1933,1,2582,1,50,4,1783.0,2,1,2,1,M,0,0
5,4,2,28,1806,0,1987,1,1000,4,806.0,2,1,2,8,E,0,0
5,4,2,29,1789,1,2196,1,50,3,1639.0,1,1,1,I,R,0,0
5,4,2,30,469,1,920,1,50,1,319.0,1,2,2,E,4,0,0
5,4,2,31,736,1,935,1,450,1,286.0,1,2,2,G,4,0,0
5,4,2,32,1215,1,1150,1,2000,4,-785.0,2,1,2,1,U,0,0
5,4,2,33,951,0,1528,1,50,2,801.0,2,2,1,8,4,0,0
5,4,2,34,1137,1,699,1,1000,1,137.0,1,2,2,A,4,0,0
5,4,2,35,1251,1,1581,1,50,1,1101.0,1,2,2,R,4,0,0
5,4,2,36,509,1,764,0,1000,3,-491.0,1,1,1,G,E,0,0
5,4,2,37,454,1,709,1,1000,1,-546.0,1,2,2,K,4,0,0
5,4,2,38,825,1,752,1,2000,2,-1175.0,2,2,1,6,3,0,0
5,4,2,39,625,1,1102,0,450,3,175.0,1,1,1,R,A,0,0
5,4,2,40,793,0,663,0,450,2,343.0,2,2,1,1,3,0,0
5,4,2,41,1706,1,1390,1,1000,2,706.0,2,2,1,4,3,0,0
5,4,2,42,2455,1,2930,1,450,4,2005.0,2,1,2,3,M,0,0
5,4,2,43,880,1,895,1,1000,4,-120.0,2,1,2,8,G,0,0
5,4,2,44,995,1,1543,1,50,3,845.0,1,1,1,A,E,0,0
5,4,2,45,2653,1,3761,1,50,4,2503.0,2,1,2,4,R,0,0
5,4,2,46,1000,1,2316,1,450,1,550.0,1,2,2,I,3,0,0
5,4,2,47,1032,1,1287,1,2000,1,-968.0,1,2,2,G,9,0,0
5,4,2,48,731,1,786,0,2000,3,-1269.0,1,1,1,K,A,0,0
5,4,2,49,937,1,1073,0,450,3,487.0,1,1,1,A,R,0,0
5,4,2,50,2218,1,1394,1,2000,3,218.0,1,1,1,I,U,0,0
5,4,2,51,3392,1,4270,1,450,2,2942.0,2,2,1,3,9,0,0
5,4,2,52,786,1,974,1,50,2,636.0,2,2,1,3,1,0,0
5,4,2,53,1083,1,1108,1,50,3,933.0,1,1,1,E,A,0,0
5,4,2,54,679,1,766,1,1000,3,-321.0,1,1,1,G,R,0,0
5,4,2,55,2821,1,2795,1,50,3,2671.0,1,1,1,M,U,0,0
5,4,2,56,463,1,862,1,1000,1,-537.0,1,2,2,M,8,0,0
5,4,2,57,660,1,667,1,1000,2,-340.0,2,2,1,2,4,0,0
5,4,2,58,687,1,599,1,450,1,237.0,1,2,2,M,4,0,0
5,4,2,59,516,1,835,1,2000,4,-1484.0,2,1,2,6,G,0,0
5,4,2,60,1009,1,824,1,2000,2,-991.0,2,2,1,3,4,0,0
5,4,2,61,1118,1,1268,1,450,4,668.0,2,1,2,2,R,0,0
5,4,2,62,575,1,702,1,2000,4,-1425.0,2,1,2,2,I,0,0
5,4,2,63,1513,1,1611,1,450,3,1063.0,1,1,1,U,R,0,0
5,4,2,64,1093,1,4051,1,450,4,643.0,2,1,2,9,U,0,0
5,4,2,65,1880,1,2143,1,50,1,1730.0,1,2,2,E,7,0,0
5,5,2,1,854,1,1891,0,50,4,704.0,2,1,2,4,A,0,0
5,5,2,2,891,0,803,1,2000,1,-1109.0,1,2,2,R,6,0,0
5,5,2,3,1840,1,2012,1,450,1,1390.0,1,2,2,E,8,0,0
5,5,2,4,605,1,724,1,2000,1,-1395.0,1,2,2,M,3,0,0
5,5,2,5,543,1,798,0,1000,3,-457.0,1,1,1,R,K,0,0
5,5,2,6,1053,1,1393,1,50,1,903.0,1,2,2,A,6,0,0
5,5,2,7,774,1,805,1,2000,3,-1226.0,1,1,1,M,I,0,0
5,5,2,8,1428,1,1230,1,1000,2,428.0,2,2,1,9,1,0,0
5,5,2,9,602,1,985,1,1000,4,-398.0,2,1,2,3,I,0,0
5,5,2,10,1248,1,1447,1,50,3,1098.0,1,1,1,E,K,0,0
5,5,2,11,807,1,1070,1,2000,4,-1193.0,2,1,2,4,G,0,0
5,5,2,12,530,1,892,1,450,2,80.0,2,2,1,4,3,0,0
5,5,2,13,547,1,850,1,1000,3,-453.0,1,1,1,M,A,0,0
5,5,2,14,568,0,1112,1,1000,1,-432.0,1,2,2,A,1,0,0
5,5,2,15,1058,1,2355,1,50,4,908.0,2,1,2,7,I,0,0
5,5,2,16,2325,1,1492,1,2000,1,325.0,1,2,2,E,6,0,0
5,5,2,17,1774,1,2966,1,50,2,1624.0,2,2,1,3,6,0,0
5,5,2,18,1056,1,2191,1,50,1,906.0,1,2,2,A,7,0,0
5,5,2,19,1536,1,1704,1,450,4,1086.0,2,1,2,4,M,0,0
5,5,2,20,1001,1,704,1,2000,2,-999.0,2,2,1,1,3,0,0
5,5,2,21,1579,1,3182,1,1000,1,579.0,1,2,2,I,8,0,0
5,5,2,22,1386,1,1494,1,50,2,1236.0,2,2,1,1,4,0,0
5,5,2,23,711,0,1797,1,1000,2,-289.0,2,2,1,8,2,0,0
5,5,2,24,1318,1,973,1,2000,3,-682.0,1,1,1,A,E,0,0
5,5,2,25,1710,1,854,1,2000,2,-290.0,2,2,1,8,9,0,0
5,5,2,26,595,0,1147,1,1000,4,-405.0,2,1,2,1,E,0,0
5,5,2,27,948,1,1303,1,450,4,498.0,2,1,2,8,I,0,0
5,5,2,28,795,1,932,1,450,3,345.0,1,1,1,R,G,0,0
5,5,2,29,1018,1,1628,0,50,4,868.0,2,1,2,1,A,0,0
5,5,2,30,976,1,1697,1,1000,4,-24.0,2,1,2,6,K,0,0
5,5,2,31,691,1,1015,1,450,2,241.0,2,2,1,8,4,0,0
5,5,2,32,1039,1,1303,1,2000,2,-961.0,2,2,1,7,1,0,0
5,5,2,33,1497,0,2120,0,50,3,1347.0,1,1,1,K,M,0,0
5,5,2,34,653,0,829,1,450,1,203.0,1,2,2,K,1,0,0
5,5,2,35,1217,1,984,1,2000,4,-783.0,2,1,2,4,U,0,0
5,5,2,36,1488,1,2878,1,50,4,1338.0,2,1,2,3,U,0,0
5,5,2,37,1940,1,2232,1,450,3,1490.0,1,1,1,E,G,0,0
5,5,2,38,2105,1,2370,1,450,2,1655.0,2,2,1,7,3,0,0
5,5,2,39,773,1,1052,1,50,2,623.0,2,2,1,3,9,0,0
5,5,2,40,580,1,771,1,1000,4,-420.0,2,1,2,7,R,0,0
5,5,2,41,1411,1,3231,1,50,1,1261.0,1,2,2,E,3,0,0
5,5,2,42,722,1,812,1,450,1,272.0,1,2,2,M,7,0,0
5,5,2,43,630,1,782,1,2000,1,-1370.0,1,2,2,G,9,0,0
5,5,2,44,805,1,732,1,1000,2,-195.0,2,2,1,7,9,0,0
5,5,2,45,1478,1,1304,1,1000,1,478.0,1,2,2,U,6,0,0
5,5,2,46,945,1,1616,0,1000,3,-55.0,1,1,1,G,A,0,0
5,5,2,47,504,1,1399,1,2000,3,-1496.0,1,1,1,R,K,0,0
5,5,2,48,1366,1,2663,1,50,3,1216.0,1,1,1,E,M,0,0
5,5,2,49,1764,1,1820,1,2000,3,-236.0,1,1,1,R,U,0,0
5,5,2,50,2601,1,3352,1,450,4,2151.0,2,1,2,3,K,0,0
5,5,2,51,1216,1,2196,1,450,1,766.0,1,2,2,E,6,0,0
5,5,2,52,1100,0,2585,1,450,2,650.0,2,2,1,9,3,0,0
5,5,2,53,1137,0,1777,0,450,3,687.0,1,1,1,M,U,0,0
5,5,2,54,423,1,734,0,1000,3,-577.0,1,1,1,M,K,0,0
5,5,2,55,1024,1,759,1,2000,1,-976.0,1,2,2,I,7,0,0
5,5,2,56,1273,1,1719,1,2000,4,-727.0,2,1,2,3,M,0,0
5,5,2,57,634,1,785,1,1000,2,-366.0,2,2,1,6,8,0,0
5,5,2,58,2544,1,3029,1,50,1,2394.0,1,2,2,M,2,0,0
5,5,2,59,1216,1,2468,1,450,3,766.0,1,1,1,U,G,0,0
5,5,2,60,1050,1,1137,1,2000,2,-950.0,2,2,1,6,4,0,0
5,5,2,61,1147,1,1330,1,50,2,997.0,2,2,1,4,8,0,0
5,5,2,62,487,1,958,1,1000,4,-513.0,2,1,2,2,M,0,0
5,5,2,63,1254,1,1403,1,50,3,1104.0,1,1,1,I,K,0,0
5,5,2,64,887,1,830,1,2000,4,-1113.0,2,1,2,1,I,0,0
5,5,2,65,723,1,954,1,50,4,573.0,2,1,2,1,R,0,0
9,1,1,1,2607,0,4383,0,50,2,2457.0,2,2,1,1,7,0,0
9,1,1,2,2592,1,5066,1,50,1,2442.0,1,2,2,U,6,0,0
9,1,1,3,1600,0,935,0,2000,3,-400.0,1,1,1,E,A,0,0
9,1,1,4,6144,1,15411,1,1000,4,5144.0,2,1,2,9,G,0,0
9,1,1,5,4162,1,6332,1,450,2,3712.0,2,2,1,8,9,0,0
9,1,1,6,1402,1,3776,1,450,4,952.0,2,1,2,9,E,0,0
9,1,1,7,2207,0,2493,1,1000,1,1207.0,1,2,2,R,9,0,0
9,1,1,8,3802,1,4369,1,450,3,3352.0,1,1,1,R,K,0,0
9,1,1,9,584,1,1808,1,2000,1,-1416.0,1,2,2,G,2,0,0
9,1,1,10,1712,1,895,1,2000,2,-288.0,2,2,1,2,9,0,0
9,1,1,11,3257,1,4826,1,50,4,3107.0,2,1,2,9,K,0,0
9,1,1,12,842,0,1153,0,1000,3,-158.0,1,1,1,A,U,0,0
9,1,1,13,2874,1,2809,1,1000,2,1874.0,2,2,1,1,2,0,0
9,1,1,14,3224,1,4169,1,50,3,3074.0,1,1,1,G,M,0,0
9,1,1,15,1123,1,1470,1,450,1,673.0,1,2,2,I,2,0,0
9,1,1,16,829,0,2157,1,2000,4,-1171.0,2,1,2,3,K,0,0
9,1,1,17,2486,1,2319,0,1000,1,1486.0,1,2,2,G,1,0,0
9,1,1,18,1918,1,1094,1,1000,3,918.0,1,1,1,E,U,0,0
9,1,1,19,1792,0,2634,1,50,4,1642.0,2,1,2,1,R,0,0
9,1,1,20,3951,1,5010,0,50,2,3801.0,2,2,1,4,3,0,0
9,1,1,21,2511,0,4466,1,1000,4,1511.0,2,1,2,8,U,0,0
9,1,1,22,1931,1,1552,1,1000,2,931.0,2,2,1,3,8,0,0
9,1,1,23,1946,1,1996,1,450,3,1496.0,1,1,1,G,U,0,0
9,1,1,24,3455,1,3694,0,50,1,3305.0,1,2,2,I,1,0,0
9,2,2,1,1187,1,2786,1,2000,2,-813.0,2,2,1,1,4,0,0
9,2,2,2,1395,1,1275,1,2000,1,-605.0,1,2,2,E,7,0,0
9,2,2,3,1087,1,1208,1,450,2,637.0,2,2,1,1,9,0,0
9,2,2,4,1898,1,3393,1,50,3,1748.0,1,1,1,M,I,0,0
9,2,2,5,811,0,1084,0,450,1,361.0,1,2,2,I,4,0,0
9,2,2,6,4004,1,4096,1,1000,1,3004.0,1,2,2,E,3,0,0
9,2,2,7,1351,1,1453,1,450,4,901.0,2,1,2,8,R,0,0
9,2,2,8,753,1,2081,1,2000,2,-1247.0,2,2,1,9,6,0,0
9,2,2,9,1485,1,1823,1,50,2,1335.0,2,2,1,8,3,0,0
9,2,2,10,1340,1,1996,1,2000,4,-660.0,2,1,2,3,E,0,0
9,2,2,11,1196,0,716,0,2000,3,-804.0,1,1,1,R,A,0,0
9,2,2,12,1294,1,2960,1,1000,4,294.0,2,1,2,6,R,0,0
9,2,2,13,726,1,812,1,450,4,276.0,2,1,2,2,K,0,0
9,2,2,14,682,1,1642,1,2000,1,-1318.0,1,2,2,M,8,0,0
9,2,2,15,575,1,532,1,450,3,125.0,1,1,1,M,G,0,0
9,2,2,16,694,1,718,1,1000,2,-306.0,2,2,1,8,4,0,0
9,2,2,17,614,1,869,1,50,4,464.0,2,1,2,4,K,0,0
9,2,2,18,811,1,1159,1,50,1,661.0,1,2,2,K,3,0,0
9,2,2,19,701,1,875,1,450,1,251.0,1,2,2,E,6,0,0
9,2,2,20,1670,1,1799,1,450,2,1220.0,2,2,1,1,6,0,0
9,2,2,21,1467,1,3379,1,2000,1,-533.0,1,2,2,A,7,0,0
9,2,2,22,2492,0,3158,1,50,1,2342.0,1,2,2,M,6,0,0
9,2,2,23,630,1,733,1,2000,3,-1370.0,1,1,1,I,K,0,0
9,2,2,24,776,1,695,1,2000,4,-1224.0,2,1,2,6,G,0,0
9,2,2,25,1586,1,1607,1,50,3,1436.0,1,1,1,A,I,0,0
9,2,2,26,2153,1,1371,0,1000,3,1153.0,1,1,1,R,M,0,0
9,2,2,27,2592,1,2000,1,1000,1,1592.0,1,2,2,U,8,0,0
9,2,2,28,526,1,652,1,450,1,76.0,1,2,2,U,4,0,0
9,2,2,29,1528,1,2125,1,50,4,1378.0,2,1,2,7,G,0,0
9,2,2,30,1868,1,1035,1,1000,2,868.0,2,2,1,6,4,0,0
9,2,2,31,567,1,716,1,450,2,117.0,2,2,1,6,1,0,0
9,2,2,32,991,1,806,1,2000,2,-1009.0,2,2,1,3,7,0,0
9,2,2,33,1382,1,549,1,2000,3,-618.0,1,1,1,K,G,0,0
9,2,2,34,734,1,935,1,50,3,584.0,1,1,1,A,E,0,0
9,2,2,35,1112,1,1813,1,50,2,962.0,2,2,1,6,8,0,0
9,2,2,36,1039,1,772,1,1000,2,39.0,2,2,1,4,8,0,0
9,2,2,37,631,0,1246,1,1000,3,-369.0,1,1,1,G,R,0,0
9,2,2,38,587,1,755,1,450,3,137.0,1,1,1,K,E,0,0
9,2,2,39,808,1,801,1,2000,2,-1192.0,2,2,1,6,7,0,0
9,2,2,40,1407,1,863,1,2000,1,-593.0,1,2,2,E,9,0,0
9,2,2,41,1475,1,2188,0,50,2,1325.0,2,2,1,7,8,0,0
9,2,2,42,2300,1,2381,0,50,1,2150.0,1,2,2,U,1,0,0
9,2,2,43,630,1,3293,1,2000,3,-1370.0,1,1,1,E,K,0,0
9,2,2,44,1169,1,977,1,1000,1,169.0,1,2,2,G,8,0,0
9,2,2,45,768,1,599,0,1000,4,-232.0,2,1,2,4,E,0,0
9,2,2,46,766,1,842,1,450,4,316.0,2,1,2,2,U,0,0
9,2,2,47,656,1,619,1,450,2,206.0,2,2,1,1,3,0,0
9,2,2,48,3092,1,3094,1,50,3,2942.0,1,1,1,U,K,0,0
9,2,2,49,1905,1,1587,1,450,1,1455.0,1,2,2,U,9,0,0
9,2,2,50,630,1,589,1,1000,2,-370.0,2,2,1,7,9,0,0
9,2,2,51,821,1,861,1,2000,4,-1179.0,2,1,2,3,U,0,0
9,2,2,52,1160,1,872,1,450,3,710.0,1,1,1,E,G,0,0
9,2,2,53,2258,1,2763,1,50,4,2108.0,2,1,2,6,K,0,0
9,2,2,54,1868,0,2756,1,1000,1,868.0,1,2,2,K,2,0,0
9,2,2,55,2236,1,1366,1,1000,3,1236.0,1,1,1,U,M,0,0
9,2,2,56,1227,1,1037,1,1000,4,227.0,2,1,2,6,I,0,0
9,2,2,57,1000,0,1369,1,50,1,850.0,1,2,2,R,8,0,0
9,2,2,58,1321,1,1281,1,450,4,871.0,2,1,2,6,E,0,0
9,2,2,59,3809,1,2257,1,2000,2,1809.0,2,2,1,9,1,0,0
9,2,2,60,1782,1,1597,1,2000,4,-218.0,2,1,2,1,G,0,0
9,2,2,61,965,1,1320,1,450,4,515.0,2,1,2,2,E,0,0
9,2,2,62,637,1,732,1,1000,4,-363.0,2,1,2,7,R,0,0
9,2,2,63,765,1,776,0,450,3,315.0,1,1,1,I,A,0,0
9,2,2,64,771,1,1322,1,1000,3,-229.0,1,1,1,R,I,0,0
9,2,2,65,635,1,986,1,450,2,185.0,2,2,1,7,1,0,0
9,3,2,1,1266,1,1146,1,50,2,1116.0,2,2,1,6,9,0,0
9,3,2,2,773,1,564,1,2000,2,-1227.0,2,2,1,4,9,0,0
9,3,2,3,822,1,965,1,2000,4,-1178.0,2,1,2,2,R,0,0
9,3,2,4,662,1,702,0,2000,3,-1338.0,1,1,1,I,M,0,0
9,3,2,5,921,1,679,1,1000,2,-79.0,2,2,1,3,9,0,0
9,3,2,6,3763,1,1952,1,2000,1,1763.0,1,2,2,K,8,0,0
9,3,2,7,676,1,1030,1,50,4,526.0,2,1,2,9,R,0,0
9,3,2,8,1259,1,674,0,1000,4,259.0,2,1,2,8,A,0,0
9,3,2,9,1437,1,1318,1,450,1,987.0,1,2,2,K,9,0,0
9,3,2,10,1365,1,2604,1,50,2,1215.0,2,2,1,9,3,0,0
9,3,2,11,1725,1,1679,1,50,3,1575.0,1,1,1,U,I,0,0
9,3,2,12,723,1,1225,1,2000,1,-1277.0,1,2,2,E,8,0,0
9,3,2,13,1800,1,1062,1,1000,3,800.0,1,1,1,A,G,0,0
9,3,2,14,2907,1,3083,0,50,4,2757.0,2,1,2,9,M,0,0
9,3,2,15,2632,1,5660,1,450,4,2182.0,2,1,2,3,I,0,0
9,3,2,16,1507,1,1215,1,450,2,1057.0,2,2,1,2,7,0,0
9,3,2,17,751,1,614,1,2000,3,-1249.0,1,1,1,M,E,0,0
9,3,2,18,4333,1,4465,1,450,1,3883.0,1,2,2,G,6,0,0
9,3,2,19,4542,1,2790,1,2000,4,2542.0,2,1,2,4,U,0,0
9,3,2,20,533,1,809,1,450,4,83.0,2,1,2,7,I,0,0
9,3,2,21,457,1,1144,1,1000,2,-543.0,2,2,1,4,7,0,0
9,3,2,22,2370,1,2591,0,50,2,2220.0,2,2,1,8,1,0,0
9,3,2,23,450,0,723,0,50,1,300.0,1,2,2,A,8,0,0
9,3,2,24,5452,1,5350,1,1000,1,4452.0,1,2,2,K,7,0,0
9,3,2,25,590,1,1317,1,2000,1,-1410.0,1,2,2,R,3,0,0
9,3,2,26,840,1,4664,1,2000,2,-1160.0,2,2,1,7,6,0,0
9,3,2,27,917,1,878,1,50,3,767.0,1,1,1,M,K,0,0
9,3,2,28,1410,1,1081,1,450,2,960.0,2,2,1,2,4,0,0
9,3,2,29,747,1,962,1,50,4,597.0,2,1,2,9,A,0,0
9,3,2,30,757,1,2357,1,2000,4,-1243.0,2,1,2,1,K,0,0
9,3,2,31,2982,1,2642,1,450,3,2532.0,1,1,1,A,R,0,0
9,3,2,32,2040,1,2886,1,1000,4,1040.0,2,1,2,7,U,0,0
9,3,2,33,1203,1,1255,1,50,1,1053.0,1,2,2,R,6,0,0
9,3,2,34,634,1,929,1,2000,3,-1366.0,1,1,1,M,U,0,0
9,3,2,35,2386,1,2263,1,50,3,2236.0,1,1,1,K,M,0,0
9,3,2,36,2527,1,1657,1,1000,3,1527.0,1,1,1,I,R,0,0
9,3,2,37,556,1,583,0,450,3,106.0,1,1,1,I,U,0,0
9,3,2,38,3169,1,1802,1,2000,2,1169.0,2,2,1,6,3,0,0
9,3,2,39,943,1,890,1,50,2,793.0,2,2,1,8,2,0,0
9,3,2,40,731,1,758,1,450,1,281.0,1,2,2,M,9,0,0
9,3,2,41,1385,1,1280,1,450,4,935.0,2,1,2,9,U,0,0
9,3,2,42,706,1,833,1,50,3,556.0,1,1,1,K,I,0,0
9,3,2,43,1336,1,802,1,1000,1,336.0,1,2,2,M,7,0,0
9,3,2,44,702,1,655,1,2000,3,-1298.0,1,1,1,I,E,0,0
9,3,2,45,707,1,706,1,2000,4,-1293.0,2,1,2,8,E,0,0
9,3,2,46,1262,1,1342,1,450,2,812.0,2,2,1,1,8,0,0
9,3,2,47,1444,1,1752,1,50,4,1294.0,2,1,2,6,M,0,0
9,3,2,48,830,1,884,1,50,1,680.0,1,2,2,E,2,0,0
9,3,2,49,3059,1,2211,0,1000,1,2059.0,1,2,2,R,1,0,0
9,3,2,50,1160,1,777,1,1000,2,160.0,2,2,1,7,2,0,0
9,3,2,51,7679,1,7464,1,450,3,7229.0,1,1,1,E,M,0,0
9,3,2,52,3145,0,2476,1,1000,4,2145.0,2,1,2,1,A,0,0
9,3,2,53,1150,1,1469,1,2000,1,-850.0,1,2,2,M,3,0,0
9,3,2,54,515,1,610,0,1000,3,-485.0,1,1,1,U,A,0,0
9,3,2,55,745,1,938,1,450,2,295.0,2,2,1,2,3,0,0
9,3,2,56,3119,1,3040,1,450,1,2669.0,1,2,2,I,9,0,0
9,3,2,57,2873,1,1975,1,1000,2,1873.0,2,2,1,8,6,0,0
9,3,2,58,681,1,801,1,2000,4,-1319.0,2,1,2,8,G,0,0
9,3,2,59,2152,1,656,1,2000,3,152.0,1,1,1,M,A,0,0
9,3,2,60,660,1,739,1,1000,3,-340.0,1,1,1,U,R,0,0
9,3,2,61,869,1,836,1,2000,1,-1131.0,1,2,2,K,4,0,0
9,3,2,62,1082,1,614,1,1000,1,82.0,1,2,2,U,2,0,0
9,3,2,63,1797,1,1274,1,1000,4,797.0,2,1,2,3,R,0,0
9,3,2,64,1704,1,1813,1,50,2,1554.0,2,2,1,3,4,0,0
9,3,2,65,1264,1,1088,1,2000,2,-736.0,2,2,1,2,1,0,0
9,4,2,1,857,1,864,1,50,1,707.0,1,2,2,I,6,0,0
9,4,2,2,646,1,647,1,450,3,196.0,1,1,1,G,A,0,0
9,4,2,3,872,1,623,1,1000,2,-128.0,2,2,1,9,4,0,0
9,4,2,4,1925,1,1895,1,50,4,1775.0,2,1,2,7,E,0,0
9,4,2,5,769,1,724,1,50,2,619.0,2,2,1,7,4,0,0
9,4,2,6,1372,1,1354,1,50,3,1222.0,1,1,1,G,K,0,0
9,4,2,7,3732,1,3434,1,450,1,3282.0,1,2,2,A,4,0,0
9,4,2,8,3832,1,3508,1,450,4,3382.0,2,1,2,3,A,0,0
9,4,2,9,537,1,784,1,1000,4,-463.0,2,1,2,2,A,0,0
9,4,2,10,1159,1,869,1,450,3,709.0,1,1,1,I,G,0,0
9,4,2,11,849,1,969,1,2000,4,-1151.0,2,1,2,3,M,0,0
9,4,2,12,785,1,2041,1,2000,1,-1215.0,1,2,2,U,3,0,0
9,4,2,13,968,1,720,1,2000,2,-1032.0,2,2,1,7,3,0,0
9,4,2,14,1617,1,1602,1,50,1,1467.0,1,2,2,R,2,0,0
9,4,2,15,2760,1,2559,0,450,2,2310.0,2,2,1,3,1,0,0
9,4,2,16,606,1,677,1,1000,2,-394.0,2,2,1,3,2,0,0
9,4,2,17,3513,1,3668,1,450,1,3063.0,1,2,2,A,6,0,0
9,4,2,18,460,1,691,0,1000,3,-540.0,1,1,1,U,G,0,0
9,4,2,19,4695,1,4829,1,50,4,4545.0,2,1,2,9,I,0,0
9,4,2,20,2006,0,3099,0,1000,1,1006.0,1,2,2,I,8,0,0
9,4,2,21,5161,0,4540,0,2000,1,3161.0,1,2,2,K,1,0,0
9,4,2,22,3003,1,2915,1,450,4,2553.0,2,1,2,1,E,0,0
9,4,2,23,828,0,3771,1,2000,2,-1172.0,2,2,1,9,8,0,0
9,4,2,24,988,1,920,1,50,2,838.0,2,2,1,4,6,0,0
9,4,2,25,861,1,994,1,50,3,711.0,1,1,1,K,U,0,0
9,4,2,26,622,1,815,1,450,2,172.0,2,2,1,8,7,0,0
9,4,2,27,1312,1,851,1,1000,4,312.0,2,1,2,4,G,0,0
9,4,2,28,1613,1,1004,1,2000,4,-387.0,2,1,2,3,G,0,0
9,4,2,29,900,1,579,1,2000,3,-1100.0,1,1,1,R,G,0,0
9,4,2,30,755,1,3769,1,50,1,605.0,1,2,2,A,2,0,0
9,4,2,31,1581,1,1050,0,1000,1,581.0,1,2,2,A,1,0,0
9,4,2,32,1088,1,1046,1,50,4,938.0,2,1,2,8,K,0,0
9,4,2,33,2126,1,2065,1,50,2,1976.0,2,2,1,4,2,0,0
9,4,2,34,3131,1,3151,1,450,1,2681.0,1,2,2,G,4,0,0
9,4,2,35,865,1,928,1,50,1,715.0,1,2,2,M,4,0,0
9,4,2,36,508,1,504,1,450,3,58.0,1,1,1,U,E,0,0
9,4,2,37,1339,1,1838,1,450,1,889.0,1,2,2,R,7,0,0
9,4,2,38,734,1,646,1,1000,2,-266.0,2,2,1,6,2,0,0
9,4,2,39,676,1,634,1,1000,3,-324.0,1,1,1,A,K,0,0
9,4,2,40,704,1,682,1,450,2,254.0,2,2,1,3,6,0,0
9,4,2,41,1058,0,586,0,2000,2,-942.0,2,2,1,4,1,0,0
9,4,2,42,865,1,716,1,450,4,415.0,2,1,2,8,M,0,0
9,4,2,43,456,1,647,1,1000,4,-544.0,2,1,2,2,G,0,0
9,4,2,44,964,1,931,1,50,3,814.0,1,1,1,K,A,0,0
9,4,2,45,686,1,710,1,450,4,236.0,2,1,2,6,U,0,0
9,4,2,46,1214,1,1915,1,1000,1,214.0,1,2,2,G,3,0,0
9,4,2,47,624,1,584,0,2000,1,-1376.0,1,2,2,M,1,0,0
9,4,2,48,1071,1,862,1,2000,3,-929.0,1,1,1,E,I,0,0
9,4,2,49,3339,0,3006,0,450,3,2889.0,1,1,1,R,E,0,0
9,4,2,50,2863,1,1963,1,1000,3,1863.0,1,1,1,G,I,0,0
9,4,2,51,1871,1,1820,1,50,2,1721.0,2,2,1,9,2,0,0
9,4,2,52,663,1,830,1,2000,2,-1337.0,2,2,1,2,6,0,0
9,4,2,53,1796,1,2257,1,50,3,1646.0,1,1,1,M,R,0,0
9,4,2,54,4226,1,2386,1,2000,3,2226.0,1,1,1,E,R,0,0
9,4,2,55,962,0,2201,1,1000,3,-38.0,1,1,1,A,M,0,0
9,4,2,56,4016,1,3789,1,450,1,3566.0,1,2,2,G,7,0,0
9,4,2,57,805,1,695,1,450,2,355.0,2,2,1,9,7,0,0
9,4,2,58,1861,1,2042,1,50,1,1711.0,1,2,2,A,9,0,0
9,4,2,59,3051,1,3271,1,50,4,2901.0,2,1,2,2,I,0,0
9,4,2,60,626,1,585,0,1000,2,-374.0,2,2,1,2,8,0,0
9,4,2,61,1137,1,657,1,2000,4,-863.0,2,1,2,8,I,0,0
9,4,2,62,3205,1,2848,1,450,4,2755.0,2,1,2,7,M,0,0
9,4,2,63,1873,1,760,0,2000,3,-127.0,1,1,1,G,E,0,0
9,4,2,64,3825,1,5929,1,1000,4,2825.0,2,1,2,4,R,0,0
9,4,2,65,900,1,834,1,2000,1,-1100.0,1,2,2,K,6,0,0
9,5,2,1,780,1,948,1,2000,4,-1220.0,2,1,2,7,A,0,0
9,5,2,2,629,1,684,1,1000,1,-371.0,1,2,2,M,2,0,0
9,5,2,3,1576,1,1650,1,50,1,1426.0,1,2,2,E,4,0,0
9,5,2,4,575,1,2190,0,2000,1,-1425.0,1,2,2,U,7,0,0
9,5,2,5,3077,1,2757,1,450,3,2627.0,1,1,1,K,R,0,0
9,5,2,6,557,1,724,1,1000,1,-443.0,1,2,2,R,4,0,0
9,5,2,7,3422,1,3421,1,50,3,3272.0,1,1,1,R,U,0,0
9,5,2,8,1085,1,1008,1,50,2,935.0,2,2,1,6,4,0,0
9,5,2,9,1652,1,1623,1,50,4,1502.0,2,1,2,4,I,0,0
9,5,2,10,2348,1,633,0,2000,3,348.0,1,1,1,A,E,0,0
9,5,2,11,984,1,1076,1,450,4,534.0,2,1,2,4,M,0,0
9,5,2,12,1145,1,784,1,2000,2,-855.0,2,2,1,4,9,0,0
9,5,2,13,2119,1,1783,1,450,3,1669.0,1,1,1,R,E,0,0
9,5,2,14,1180,1,1006,0,450,1,730.0,1,2,2,I,3,0,0
9,5,2,15,1047,1,1109,1,50,4,897.0,2,1,2,2,M,0,0
9,5,2,16,900,1,1843,1,2000,1,-1100.0,1,2,2,G,9,0,0
9,5,2,17,1857,1,1320,1,1000,2,857.0,2,2,1,7,1,0,0
9,5,2,18,659,1,735,1,450,1,209.0,1,2,2,I,7,0,0
9,5,2,19,970,0,1161,1,2000,4,-1030.0,2,1,2,1,I,0,0
9,5,2,20,5257,1,4910,1,450,2,4807.0,2,2,1,7,4,0,0
9,5,2,21,1098,1,1544,1,50,1,948.0,1,2,2,E,1,0,0
9,5,2,22,661,1,644,1,2000,2,-1339.0,2,2,1,9,1,0,0
9,5,2,23,570,1,913,1,1000,2,-430.0,2,2,1,3,1,0,0
9,5,2,24,524,1,691,1,50,3,374.0,1,1,1,K,R,0,0
9,5,2,25,1270,1,1055,1,450,2,820.0,2,2,1,7,9,0,0
9,5,2,26,857,1,728,1,1000,4,-143.0,2,1,2,1,M,0,0
9,5,2,27,2251,1,1802,1,2000,4,251.0,2,1,2,6,A,0,0
9,5,2,28,801,1,648,1,1000,3,-199.0,1,1,1,E,A,0,0
9,5,2,29,2405,1,2303,1,450,4,1955.0,2,1,2,4,A,0,0
9,5,2,30,1717,1,1982,1,50,4,1567.0,2,1,2,1,U,0,0
9,5,2,31,2430,1,2460,0,50,2,2280.0,2,2,1,2,1,0,0
9,5,2,32,1124,1,1008,1,450,2,674.0,2,2,1,4,2,0,0
9,5,2,33,4735,1,4867,1,50,3,4585.0,1,1,1,G,I,0,0
9,5,2,34,3325,1,2709,1,1000,1,2325.0,1,2,2,A,3,0,0
9,5,2,35,4639,1,4285,1,1000,4,3639.0,2,1,2,7,K,0,0
9,5,2,36,1956,1,1219,1,2000,4,-44.0,2,1,2,2,G,0,0
9,5,2,37,3649,1,1848,1,2000,3,1649.0,1,1,1,R,I,0,0
9,5,2,38,1549,1,1486,1,50,2,1399.0,2,2,1,1,6,0,0
9,5,2,39,1706,1,3417,1,2000,2,-294.0,2,2,1,9,3,0,0
9,5,2,40,1240,1,1191,1,50,4,1090.0,2,1,2,7,G,0,0
9,5,2,41,3255,1,3246,1,50,1,3105.0,1,2,2,K,8,0,0
9,5,2,42,2446,1,2042,1,1000,1,1446.0,1,2,2,G,3,0,0
9,5,2,43,1162,1,796,1,450,1,712.0,1,2,2,G,6,0,0
9,5,2,44,1062,1,666,1,1000,2,62.0,2,2,1,8,9,0,0
9,5,2,45,2082,1,1535,1,2000,1,82.0,1,2,2,M,2,0,0
9,5,2,46,2610,1,2361,1,450,3,2160.0,1,1,1,E,K,0,0
9,5,2,47,616,1,3487,1,1000,3,-384.0,1,1,1,E,U,0,0
9,5,2,48,845,1,3220,1,2000,3,-1155.0,1,1,1,K,G,0,0
9,5,2,49,836,1,1930,1,1000,3,-164.0,1,1,1,U,M,0,0
9,5,2,50,1605,1,1343,1,450,4,1155.0,2,1,2,7,R,0,0
9,5,2,51,1963,1,2233,1,50,1,1813.0,1,2,2,I,7,0,0
9,5,2,52,626,1,536,1,450,2,176.0,2,2,1,4,6,0,0
9,5,2,53,1200,1,829,1,450,3,750.0,1,1,1,I,A,0,0
9,5,2,54,531,1,666,1,50,3,381.0,1,1,1,G,A,0,0
9,5,2,55,993,1,592,1,1000,1,-7.0,1,2,2,U,6,0,0
9,5,2,56,544,1,527,1,1000,4,-456.0,2,1,2,7,I,0,0
9,5,2,57,1479,1,1590,1,50,2,1329.0,2,2,1,2,9,0,0
9,5,2,58,824,1,700,0,450,1,374.0,1,2,2,U,7,0,0
9,5,2,59,681,1,961,1,2000,3,-1319.0,1,1,1,K,A,0,0
9,5,2,60,1002,1,618,1,2000,2,-998.0,2,2,1,7,8,0,0
9,5,2,61,944,1,839,1,1000,2,-56.0,2,2,1,1,7,0,0
9,5,2,62,3541,1,3566,1,50,4,3391.0,2,1,2,4,R,0,0
9,5,2,63,608,1,926,1,1000,3,-392.0,1,1,1,K,I,0,0
9,5,2,64,2968,1,2225,1,1000,4,1968.0,2,1,2,3,M,0,0
9,5,2,65,567,1,646,1,2000,4,-1433.0,2,1,2,9,R,0,0
10,1,1,1,1238,1,2894,1,2000,4,-762.0,2,1,2,4,R,0,0
10,1,1,2,2041,0,4785,1,50,3,1891.0,1,1,1,I,E,0,0
10,1,1,3,1986,1,3270,1,50,2,1836.0,2,2,1,3,7,0,0
10,1,1,4,4199,1,5824,1,50,1,4049.0,1,2,2,K,9,0,0
10,1,1,5,5319,1,5288,1,450,2,4869.0,2,2,1,9,7,0,0
10,1,1,6,2737,1,1476,1,2000,1,737.0,1,2,2,G,8,0,0
10,1,1,7,1444,1,1211,1,2000,3,-556.0,1,1,1,A,K,0,0
10,1,1,8,706,1,1173,1,450,4,256.0,2,1,2,7,I,0,0
10,1,1,9,2015,1,1636,1,1000,3,1015.0,1,1,1,G,E,0,0
10,1,1,10,964,1,931,1,1000,4,-36.0,2,1,2,3,E,0,0
10,1,1,11,2037,1,2550,1,450,1,1587.0,1,2,2,E,9,0,0
10,1,1,12,884,1,707,1,1000,2,-116.0,2,2,1,1,9,0,0
10,1,1,13,957,1,1137,1,450,3,507.0,1,1,1,K,E,0,0
10,1,1,14,717,1,603,1,2000,2,-1283.0,2,2,1,3,9,0,0
10,1,1,15,795,1,946,1,1000,1,-205.0,1,2,2,E,6,0,0
10,1,1,16,2395,1,2928,1,50,4,2245.0,2,1,2,6,I,0,0
10,1,1,17,494,1,1002,1,50,2,344.0,2,2,1,9,8,0,0
10,1,1,18,807,1,654,1,1000,3,-193.0,1,1,1,I,A,0,0
10,1,1,19,1627,1,2194,1,450,4,1177.0,2,1,2,4,U,0,0
10,1,1,20,1952,1,815,1,2000,1,-48.0,1,2,2,E,1,0,0
10,1,1,21,726,1,991,1,50,4,576.0,2,1,2,3,I,0,0
10,1,1,22,587,1,799,1,2000,2,-1413.0,2,2,1,9,6,0,0
10,1,1,23,1269,1,910,1,1000,1,269.0,1,2,2,U,6,0,0
10,1,1,24,734,1,684,1,450,3,284.0,1,1,1,I,G,0,0
10,2,2,1,853,1,1764,1,1000,2,-147.0,2,2,1,1,2,0,0
10,2,2,2,1277,1,1268,1,450,1,827.0,1,2,2,G,9,0,0
10,2,2,3,1070,1,990,1,450,2,620.0,2,2,1,6,3,0,0
10,2,2,4,1787,1,802,1,2000,3,-213.0,1,1,1,M,E,0,0
10,2,2,5,689,1,1239,1,50,1,539.0,1,2,2,E,4,0,0
10,2,2,6,982,1,802,1,450,1,532.0,1,2,2,A,1,0,0
10,2,2,7,794,0,889,1,2000,4,-1206.0,2,1,2,8,G,0,0
10,2,2,8,669,1,644,1,1000,2,-331.0,2,2,1,8,7,0,0
10,2,2,9,1513,1,1547,1,450,2,1063.0,2,2,1,6,4,0,0
10,2,2,10,601,1,696,1,1000,4,-399.0,2,1,2,4,K,0,0
10,2,2,11,715,1,938,1,50,3,565.0,1,1,1,A,M,0,0
10,2,2,12,820,1,1196,1,450,4,370.0,2,1,2,2,U,0,0
10,2,2,13,768,1,1114,1,50,4,618.0,2,1,2,7,K,0,0
10,2,2,14,891,1,1156,1,50,1,741.0,1,2,2,E,7,0,0
10,2,2,15,622,1,573,1,2000,3,-1378.0,1,1,1,U,R,0,0
10,2,2,16,980,1,1098,1,50,2,830.0,2,2,1,8,4,0,0
10,2,2,17,609,1,664,1,1000,4,-391.0,2,1,2,1,M,0,0
10,2,2,18,589,1,765,1,2000,1,-1411.0,1,2,2,R,3,0,0
10,2,2,19,1252,1,741,1,1000,1,252.0,1,2,2,K,2,0,0
10,2,2,20,701,1,557,1,2000,2,-1299.0,2,2,1,4,3,0,0
10,2,2,21,629,1,818,1,50,1,479.0,1,2,2,G,7,0,0
10,2,2,22,516,1,664,1,450,1,66.0,1,2,2,G,6,0,0
10,2,2,23,645,1,731,1,1000,3,-355.0,1,1,1,I,U,0,0
10,2,2,24,1166,1,645,1,2000,4,-834.0,2,1,2,8,R,0,0
10,2,2,25,658,1,875,1,50,3,508.0,1,1,1,M,A,0,0
10,2,2,26,583,1,716,1,450,3,133.0,1,1,1,A,E,0,0
10,2,2,27,455,1,439,1,2000,1,-1545.0,1,2,2,A,9,0,0
10,2,2,28,701,1,629,1,1000,1,-299.0,1,2,2,M,6,0,0
10,2,2,29,636,1,947,1,1000,4,-364.0,2,1,2,3,G,0,0
10,2,2,30,765,1,789,1,1000,2,-235.0,2,2,1,3,2,0,0
10,2,2,31,532,0,1471,1,450,2,82.0,2,2,1,2,6,0,0
10,2,2,32,596,1,809,1,50,2,446.0,2,2,1,8,3,0,0
10,2,2,33,637,1,532,1,1000,3,-363.0,1,1,1,U,K,0,0
10,2,2,34,1005,0,3447,1,450,3,555.0,1,1,1,E,A,0,0
10,2,2,35,1369,1,560,1,2000,2,-631.0,2,2,1,6,8,0,0
10,2,2,36,1097,1,1295,1,50,2,947.0,2,2,1,8,1,0,0
10,2,2,37,710,1,613,1,2000,3,-1290.0,1,1,1,E,K,0,0
10,2,2,38,1251,1,1453,1,50,3,1101.0,1,1,1,R,E,0,0
10,2,2,39,1480,1,1442,1,450,2,1030.0,2,2,1,8,6,0,0
10,2,2,40,650,1,647,1,450,1,200.0,1,2,2,E,3,0,0
10,2,2,41,861,1,773,1,2000,2,-1139.0,2,2,1,8,2,0,0
10,2,2,42,662,1,869,1,1000,1,-338.0,1,2,2,I,2,0,0
10,2,2,43,713,1,585,1,2000,3,-1287.0,1,1,1,U,G,0,0
10,2,2,44,1185,1,640,1,2000,1,-815.0,1,2,2,A,7,0,0
10,2,2,45,742,1,837,1,2000,4,-1258.0,2,1,2,3,M,0,0
10,2,2,46,538,0,1155,0,450,4,88.0,2,1,2,9,R,0,0
10,2,2,47,776,1,831,1,1000,2,-224.0,2,2,1,2,1,0,0
10,2,2,48,924,1,1141,1,50,3,774.0,1,1,1,G,R,0,0
10,2,2,49,942,1,1143,1,50,1,792.0,1,2,2,M,9,0,0
10,2,2,50,737,1,665,1,2000,2,-1263.0,2,2,1,3,8,0,0
10,2,2,51,1957,1,2173,1,50,4,1807.0,2,1,2,7,U,0,0
10,2,2,52,662,1,654,1,450,3,212.0,1,1,1,R,M,0,0
10,2,2,53,631,1,521,1,450,4,181.0,2,1,2,7,A,0,0
10,2,2,54,647,1,590,1,2000,1,-1353.0,1,2,2,U,7,0,0
10,2,2,55,526,1,549,1,1000,3,-474.0,1,1,1,R,A,0,0
10,2,2,56,749,1,942,1,50,4,599.0,2,1,2,4,M,0,0
10,2,2,57,560,1,771,1,50,1,410.0,1,2,2,I,9,0,0
10,2,2,58,682,1,625,1,2000,4,-1318.0,2,1,2,7,G,0,0
10,2,2,59,511,1,915,1,50,2,361.0,2,2,1,6,1,0,0
10,2,2,60,499,1,770,1,1000,4,-501.0,2,1,2,6,R,0,0
10,2,2,61,985,1,1211,1,50,4,835.0,2,1,2,3,R,0,0
10,2,2,62,1025,1,617,1,2000,4,-975.0,2,1,2,3,A,0,0
10,2,2,63,574,1,1286,1,50,3,424.0,1,1,1,R,G,0,0
10,2,2,64,572,1,675,1,1000,3,-428.0,1,1,1,M,I,0,0
10,2,2,65,855,1,888,1,450,2,405.0,2,2,1,3,4,0,0
10,3,2,1,753,1,608,1,1000,2,-247.0,2,2,1,3,6,0,0
10,3,2,2,1438,1,1264,1,450,2,988.0,2,2,1,7,9,0,0
10,3,2,3,631,1,734,1,1000,4,-369.0,2,1,2,8,K,0,0
10,3,2,4,529,1,584,1,2000,3,-1471.0,1,1,1,K,A,0,0
10,3,2,5,759,1,945,1,50,2,609.0,2,2,1,1,3,0,0
10,3,2,6,697,1,1019,1,450,1,247.0,1,2,2,E,8,0,0
10,3,2,7,523,1,614,1,450,4,73.0,2,1,2,9,U,0,0
10,3,2,8,646,1,811,1,50,4,496.0,2,1,2,7,M,0,0
10,3,2,9,814,1,653,1,1000,1,-186.0,1,2,2,G,4,0,0
10,3,2,10,579,1,802,1,1000,2,-421.0,2,2,1,9,1,0,0
10,3,2,11,687,1,624,1,450,3,237.0,1,1,1,E,M,0,0
10,3,2,12,610,1,977,1,450,1,160.0,1,2,2,A,6,0,0
10,3,2,13,518,1,728,1,50,3,368.0,1,1,1,A,U,0,0
10,3,2,14,618,1,569,1,2000,4,-1382.0,2,1,2,6,E,0,0
10,3,2,15,642,1,497,1,1000,4,-358.0,2,1,2,8,A,0,0
10,3,2,16,493,1,684,1,2000,2,-1507.0,2,2,1,7,6,0,0
10,3,2,17,983,0,1044,0,450,3,533.0,1,1,1,M,K,0,0
10,3,2,18,1163,1,610,1,2000,1,-837.0,1,2,2,K,8,0,0
10,3,2,19,847,1,921,1,450,4,397.0,2,1,2,2,K,0,0
10,3,2,20,671,1,574,1,2000,4,-1329.0,2,1,2,1,A,0,0
10,3,2,21,605,0,795,1,50,2,455.0,2,2,1,2,7,0,0
10,3,2,22,566,1,1013,1,1000,2,-434.0,2,2,1,4,9,0,0
10,3,2,23,1107,1,1323,1,50,1,957.0,1,2,2,K,4,0,0
10,3,2,24,671,1,590,1,1000,1,-329.0,1,2,2,R,4,0,0
10,3,2,25,574,1,622,1,2000,1,-1426.0,1,2,2,A,8,0,0
10,3,2,26,484,1,657,1,450,2,34.0,2,2,1,4,6,0,0
10,3,2,27,534,1,715,1,1000,3,-466.0,1,1,1,R,U,0,0
10,3,2,28,895,1,686,1,2000,2,-1105.0,2,2,1,7,1,0,0
10,3,2,29,514,1,579,1,450,4,64.0,2,1,2,1,I,0,0
10,3,2,30,630,1,605,1,1000,4,-370.0,2,1,2,6,K,0,0
10,3,2,31,549,1,492,1,2000,3,-1451.0,1,1,1,R,K,0,0
10,3,2,32,815,1,991,1,50,4,665.0,2,1,2,3,K,0,0
10,3,2,33,575,1,816,1,50,1,425.0,1,2,2,R,7,0,0
10,3,2,34,686,1,849,1,50,3,536.0,1,1,1,I,M,0,0
10,3,2,35,587,1,587,1,1000,3,-413.0,1,1,1,G,U,0,0
10,3,2,36,506,1,605,1,450,3,56.0,1,1,1,K,G,0,0
10,3,2,37,654,1,534,1,2000,3,-1346.0,1,1,1,A,G,0,0
10,3,2,38,631,1,721,1,450,2,181.0,2,2,1,4,8,0,0
10,3,2,39,502,1,845,1,2000,2,-1498.0,2,2,1,4,1,0,0
10,3,2,40,772,1,644,1,1000,1,-228.0,1,2,2,I,4,0,0
10,3,2,41,584,1,813,1,450,4,134.0,2,1,2,8,E,0,0
10,3,2,42,1123,1,1322,1,50,3,973.0,1,1,1,G,A,0,0
10,3,2,43,644,1,572,1,450,1,194.0,1,2,2,U,4,0,0
10,3,2,44,434,1,671,1,450,3,-16.0,1,1,1,A,I,0,0
10,3,2,45,452,1,595,1,1000,4,-548.0,2,1,2,2,A,0,0
10,3,2,46,563,1,522,1,1000,2,-437.0,2,2,1,7,2,0,0
10,3,2,47,645,1,509,1,2000,4,-1355.0,2,1,2,1,R,0,0
10,3,2,48,624,1,791,1,1000,1,-376.0,1,2,2,K,1,0,0
10,3,2,49,558,1,587,1,450,1,108.0,1,2,2,I,3,0,0
10,3,2,50,707,1,987,1,50,2,557.0,2,2,1,1,6,0,0
10,3,2,51,676,1,563,1,2000,3,-1324.0,1,1,1,E,R,0,0
10,3,2,52,1043,1,1269,1,50,4,893.0,2,1,2,2,G,0,0
10,3,2,53,681,1,624,1,2000,1,-1319.0,1,2,2,A,2,0,0
10,3,2,54,719,1,662,1,1000,3,-281.0,1,1,1,U,I,0,0
10,3,2,55,660,1,571,1,1000,2,-340.0,2,2,1,6,2,0,0
10,3,2,56,835,1,1070,1,50,1,685.0,1,2,2,I,6,0,0
10,3,2,57,673,1,528,1,2000,2,-1327.0,2,2,1,9,3,0,0
10,3,2,58,690,1,665,1,1000,4,-310.0,2,1,2,9,K,0,0
10,3,2,59,564,1,703,1,450,3,114.0,1,1,1,K,I,0,0
10,3,2,60,493,1,556,1,2000,3,-1507.0,1,1,1,K,M,0,0
10,3,2,61,510,1,565,1,1000,1,-490.0,1,2,2,I,8,0,0
10,3,2,62,532,1,756,1,50,1,382.0,1,2,2,R,8,0,0
10,3,2,63,918,1,1152,1,50,4,768.0,2,1,2,1,U,0,0
10,3,2,64,639,1,877,1,50,2,489.0,2,2,1,7,4,0,0
10,3,2,65,660,1,666,1,450,2,210.0,2,2,1,7,8,0,0
10,4,2,1,832,1,630,1,2000,1,-1168.0,1,2,2,I,7,0,0
10,4,2,2,475,1,701,1,50,3,325.0,1,1,1,I,K,0,0
10,4,2,3,1871,1,2053,1,50,2,1721.0,2,2,1,1,4,0,0
10,4,2,4,525,1,682,1,450,4,75.0,2,1,2,6,G,0,0
10,4,2,5,518,0,733,1,1000,2,-482.0,2,2,1,6,7,0,0
10,4,2,6,576,1,527,1,1000,3,-424.0,1,1,1,U,A,0,0
10,4,2,7,473,1,1556,1,450,1,23.0,1,2,2,M,4,0,0
10,4,2,8,567,1,535,1,2000,4,-1433.0,2,1,2,9,I,0,0
10,4,2,9,1304,1,707,1,1000,4,304.0,2,1,2,6,U,0,0
10,4,2,10,448,1,647,1,50,3,298.0,1,1,1,A,R,0,0
10,4,2,11,469,1,540,1,450,4,19.0,2,1,2,6,A,0,0
10,4,2,12,554,1,807,1,50,1,404.0,1,2,2,M,7,0,0
10,4,2,13,667,1,650,1,2000,2,-1333.0,2,2,1,2,9,0,0
10,4,2,14,782,1,682,1,450,1,332.0,1,2,2,K,3,0,0
10,4,2,15,574,1,554,1,450,2,124.0,2,2,1,2,8,0,0
10,4,2,16,556,1,763,1,1000,2,-444.0,2,2,1,2,3,0,0
10,4,2,17,645,1,644,1,1000,1,-355.0,1,2,2,U,8,0,0
10,4,2,18,449,1,512,1,1000,3,-551.0,1,1,1,I,R,0,0
10,4,2,19,1035,1,1254,1,50,4,885.0,2,1,2,4,I,0,0
10,4,2,20,586,1,625,1,2000,1,-1414.0,1,2,2,E,2,0,0
10,4,2,21,520,1,719,1,1000,1,-480.0,1,2,2,U,3,0,0
10,4,2,22,562,1,553,1,2000,4,-1438.0,2,1,2,9,A,0,0
10,4,2,23,849,1,1009,1,50,2,699.0,2,2,1,9,4,0,0
10,4,2,24,617,1,577,1,2000,2,-1383.0,2,2,1,4,2,0,0
10,4,2,25,561,1,664,1,450,3,111.0,1,1,1,K,R,0,0
10,4,2,26,585,1,624,1,450,2,135.0,2,2,1,7,3,0,0
10,4,2,27,555,1,809,1,50,4,405.0,2,1,2,2,E,0,0
10,4,2,28,570,1,594,1,450,4,120.0,2,1,2,4,E,0,0
10,4,2,29,583,1,742,1,2000,3,-1417.0,1,1,1,E,U,0,0
10,4,2,30,527,1,722,1,50,1,377.0,1,2,2,U,2,0,0
10,4,2,31,459,1,619,1,2000,1,-1541.0,1,2,2,R,9,0,0
10,4,2,32,626,1,521,1,2000,4,-1374.0,2,1,2,8,U,0,0
10,4,2,33,635,1,862,1,50,2,485.0,2,2,1,1,7,0,0
10,4,2,34,471,1,536,1,450,1,21.0,1,2,2,A,3,0,0
10,4,2,35,581,1,979,1,50,1,431.0,1,2,2,M,1,0,0
10,4,2,36,526,1,605,1,1000,3,-474.0,1,1,1,E,I,0,0
10,4,2,37,492,1,721,1,450,1,42.0,1,2,2,K,6,0,0
10,4,2,38,628,1,587,1,2000,2,-1372.0,2,2,1,4,7,0,0
10,4,2,39,698,1,1001,1,50,3,548.0,1,1,1,M,U,0,0
10,4,2,40,578,1,537,1,450,2,128.0,2,2,1,8,9,0,0
10,4,2,41,641,1,536,1,1000,2,-359.0,2,2,1,1,8,0,0
10,4,2,42,674,1,624,1,1000,4,-326.0,2,1,2,8,I,0,0
10,4,2,43,535,1,526,1,2000,4,-1465.0,2,1,2,7,R,0,0
10,4,2,44,1401,1,641,1,2000,3,-599.0,1,1,1,U,M,0,0
10,4,2,45,589,1,860,1,50,4,439.0,2,1,2,3,U,0,0
10,4,2,46,532,1,603,1,1000,1,-468.0,1,2,2,A,4,0,0
10,4,2,47,523,1,626,1,2000,1,-1477.0,1,2,2,I,1,0,0
10,4,2,48,648,1,571,1,450,3,198.0,1,1,1,G,K,0,0
10,4,2,49,509,1,517,1,2000,3,-1491.0,1,1,1,U,E,0,0
10,4,2,50,495,1,502,1,1000,3,-505.0,1,1,1,G,M,0,0
10,4,2,51,553,1,608,1,450,2,103.0,2,2,1,3,1,0,0
10,4,2,52,725,1,668,1,2000,2,-1275.0,2,2,1,9,2,0,0
10,4,2,53,528,1,544,1,450,3,78.0,1,1,1,M,R,0,0
10,4,2,54,637,1,866,1,50,3,487.0,1,1,1,G,I,0,0
10,4,2,55,1859,1,1211,1,1000,3,859.0,1,1,1,E,G,0,0
10,4,2,56,1120,1,586,1,1000,1,120.0,1,2,2,G,2,0,0
10,4,2,57,1822,1,1915,1,50,2,1672.0,2,2,1,2,4,0,0
10,4,2,58,641,1,497,1,2000,1,-1359.0,1,2,2,U,1,0,0
10,4,2,59,1132,0,2375,1,450,4,682.0,2,1,2,2,R,0,0
10,4,2,60,698,1,537,1,1000,2,-302.0,2,2,1,6,9,0,0
10,4,2,61,555,1,498,1,1000,4,-445.0,2,1,2,6,M,0,0
10,4,2,62,573,1,688,1,450,4,123.0,2,1,2,9,E,0,0
10,4,2,63,1429,1,1327,1,450,3,979.0,1,1,1,K,U,0,0
10,4,2,64,598,1,501,1,1000,4,-402.0,2,1,2,1,G,0,0
10,4,2,65,655,1,917,1,50,1,505.0,1,2,2,R,2,0,0
10,5,2,1,858,1,505,1,2000,4,-1142.0,2,1,2,8,M,0,0
10,5,2,2,1355,1,1285,1,450,1,905.0,1,2,2,M,8,0,0
10,5,2,3,595,1,800,0,50,1,445.0,1,2,2,G,1,0,0
10,5,2,4,732,1,876,1,2000,1,-1268.0,1,2,2,K,7,0,0
10,5,2,5,792,1,647,1,2000,3,-1208.0,1,1,1,R,I,0,0
10,5,2,6,1372,1,1310,1,450,1,922.0,1,2,2,G,3,0,0
10,5,2,7,523,1,722,1,50,3,373.0,1,1,1,M,G,0,0
10,5,2,8,710,1,614,1,2000,2,-1290.0,2,2,1,9,7,0,0
10,5,2,9,644,1,1008,1,50,4,494.0,2,1,2,1,K,0,0
10,5,2,10,549,1,652,1,1000,3,-451.0,1,1,1,E,I,0,0
10,5,2,11,514,1,465,1,2000,4,-1486.0,2,1,2,2,M,0,0
10,5,2,12,662,1,558,1,1000,2,-338.0,2,2,1,6,8,0,0
10,5,2,13,439,1,467,1,450,3,-11.0,1,1,1,A,M,0,0
10,5,2,14,664,1,711,1,1000,1,-336.0,1,2,2,R,6,0,0
10,5,2,15,1105,1,1035,1,450,4,655.0,2,1,2,1,E,0,0
10,5,2,16,580,1,1090,1,50,1,430.0,1,2,2,R,1,0,0
10,5,2,17,624,1,896,1,50,2,474.0,2,2,1,3,4,0,0
10,5,2,18,525,1,604,1,1000,1,-475.0,1,2,2,M,2,0,0
10,5,2,19,858,1,1075,1,50,4,708.0,2,1,2,9,M,0,0
10,5,2,20,574,1,803,1,450,2,124.0,2,2,1,7,8,0,0
10,5,2,21,683,1,467,1,2000,1,-1317.0,1,2,2,U,9,0,0
10,5,2,22,607,1,630,1,1000,2,-393.0,2,2,1,8,2,0,0
10,5,2,23,549,1,684,1,2000,2,-1451.0,2,2,1,1,6,0,0
10,5,2,24,663,1,844,1,50,3,513.0,1,1,1,A,E,0,0
10,5,2,25,572,1,731,1,50,2,422.0,2,2,1,6,7,0,0
10,5,2,26,608,1,503,1,1000,4,-392.0,2,1,2,9,G,0,0
10,5,2,27,585,1,592,1,450,4,135.0,2,1,2,2,I,0,0
10,5,2,28,518,1,574,1,2000,3,-1482.0,1,1,1,G,E,0,0
10,5,2,29,598,1,708,1,1000,4,-402.0,2,1,2,4,G,0,0
10,5,2,30,559,1,1208,1,50,4,409.0,2,1,2,7,E,0,0
10,5,2,31,431,1,693,1,450,2,-19.0,2,2,1,4,6,0,0
10,5,2,32,544,1,480,1,2000,2,-1456.0,2,2,1,8,7,0,0
10,5,2,33,947,1,1169,1,50,3,797.0,1,1,1,E,A,0,0
10,5,2,34,500,1,664,1,450,1,50.0,1,2,2,M,3,0,0
10,5,2,35,558,1,589,1,2000,4,-1442.0,2,1,2,4,A,0,0
10,5,2,36,525,1,548,1,1000,4,-475.0,2,1,2,1,U,0,0
10,5,2,37,550,1,501,1,1000,3,-450.0,1,1,1,E,M,0,0
10,5,2,38,577,1,615,1,1000,2,-423.0,2,2,1,3,1,0,0
10,5,2,39,1205,1,1379,1,50,2,1055.0,2,2,1,6,1,0,0
10,5,2,40,471,1,606,1,2000,4,-1529.0,2,1,2,9,K,0,0
10,5,2,41,566,1,621,1,1000,1,-434.0,1,2,2,U,9,0,0
10,5,2,42,628,1,507,1,2000,1,-1372.0,1,2,2,E,9,0,0
10,5,2,43,533,1,530,1,450,1,83.0,1,2,2,K,9,0,0
10,5,2,44,1452,0,2635,1,450,2,1002.0,2,2,1,1,8,0,0
10,5,2,45,917,1,1167,1,50,1,767.0,1,2,2,U,2,0,0
10,5,2,46,511,1,398,1,2000,3,-1489.0,1,1,1,G,R,0,0
10,5,2,47,812,1,789,1,450,3,362.0,1,1,1,A,U,0,0
10,5,2,48,514,1,633,1,1000,3,-486.0,1,1,1,R,I,0,0
10,5,2,49,862,1,1131,1,50,3,712.0,1,1,1,E,K,0,0
10,5,2,50,553,1,584,1,450,4,103.0,2,1,2,7,K,0,0
10,5,2,51,1077,0,1540,1,450,1,627.0,1,2,2,I,4,0,0
10,5,2,52,805,1,780,1,1000,2,-195.0,2,2,1,2,1,0,0
10,5,2,53,836,0,1251,1,450,3,386.0,1,1,1,K,M,0,0
10,5,2,54,661,1,694,1,2000,3,-1339.0,1,1,1,R,E,0,0
10,5,2,55,561,1,744,1,1000,1,-439.0,1,2,2,U,8,0,0
10,5,2,56,577,1,868,1,50,4,427.0,2,1,2,3,E,0,0
10,5,2,57,703,1,687,1,2000,2,-1297.0,2,2,1,9,1,0,0
10,5,2,58,458,1,706,1,50,1,308.0,1,2,2,A,2,0,0
10,5,2,59,477,1,660,1,450,3,27.0,1,1,1,K,I,0,0
10,5,2,60,654,1,591,1,450,2,204.0,2,2,1,6,3,0,0
10,5,2,61,634,1,915,1,50,2,484.0,2,2,1,4,7,0,0
10,5,2,62,637,1,684,1,1000,4,-363.0,2,1,2,2,M,0,0
10,5,2,63,513,1,520,1,1000,3,-487.0,1,1,1,U,M,0,0
10,5,2,64,506,1,548,1,450,4,56.0,2,1,2,3,U,0,0
10,5,2,65,625,1,640,1,2000,4,-1375.0,2,1,2,3,K,0,0
4,1,1,1,1629,1,1771,0,50,1,1479.0,1,2,2,U,7,0,0
4,1,1,2,727,1,690,0,50,3,577.0,1,1,1,I,E,0,0
4,1,1,3,692,0,259,0,2000,4,-1308.0,2,1,2,8,M,0,0
4,1,1,5,2013,1,192,1,2000,1,13.0,1,2,2,E,6,0,0
4,1,1,7,226,1,185,0,1000,2,-774.0,2,2,1,1,9,0,0
4,1,1,8,512,0,709,0,50,4,362.0,2,1,2,4,R,0,0
4,1,1,9,421,0,346,0,450,3,-29.0,1,1,1,G,U,0,0
4,1,1,10,0,0,441,1,450,2,,2,2,1,4,8,1,0
4,1,1,11,0,0,238,0,1000,4,,2,1,2,2,U,1,0
4,1,1,12,828,0,651,1,1000,1,-172.0,1,2,2,G,2,0,0
4,1,1,13,265,0,1128,0,1000,3,-735.0,1,1,1,R,E,0,0
4,1,1,14,546,1,751,1,50,2,396.0,2,2,1,1,4,0,0
4,1,1,15,1306,1,1134,0,450,1,856.0,1,2,2,U,3,0,0
4,1,1,16,274,0,471,1,450,4,-176.0,2,1,2,4,K,0,0
4,1,1,17,315,0,594,1,50,1,165.0,1,2,2,M,6,0,0
4,1,1,18,1443,0,1411,1,1000,2,443.0,2,2,1,8,2,0,0
4,1,1,20,375,0,311,0,1000,4,-625.0,2,1,2,4,U,0,0
4,1,1,21,873,0,540,0,450,2,423.0,2,2,1,6,3,0,0
4,1,1,22,0,1,295,0,2000,4,,2,1,2,1,U,1,0
4,1,1,23,378,0,417,1,1000,1,-622.0,1,2,2,K,2,0,0
4,1,1,24,264,1,533,1,450,3,-186.0,1,1,1,A,K,0,0
4,2,2,1,1152,1,1755,1,50,2,1002.0,2,2,1,8,3,0,0
4,2,2,2,1618,0,1097,0,2000,1,-382.0,1,2,2,A,7,0,0
4,2,2,3,1030,1,789,1,2000,2,-970.0,2,2,1,7,1,0,0
4,2,2,4,1789,0,4065,1,1000,3,789.0,1,1,1,E,R,0,0
4,2,2,5,728,1,1497,1,450,1,278.0,1,2,2,M,3,0,0
4,2,2,6,1649,0,1190,1,1000,1,649.0,1,2,2,A,3,0,0
4,2,2,7,1686,1,2502,1,450,4,1236.0,2,1,2,8,K,0,0
4,2,2,8,2453,1,2581,1,450,2,2003.0,2,2,1,6,7,0,0
4,2,2,9,1347,1,667,1,2000,2,-653.0,2,2,1,3,1,0,0
4,2,2,10,1150,1,1767,1,50,4,1000.0,2,1,2,9,R,0,0
4,2,2,11,1399,1,1647,1,50,3,1249.0,1,1,1,K,G,0,0
4,2,2,12,2405,1,5655,0,450,4,1955.0,2,1,2,9,I,0,0
4,2,2,13,1897,1,2439,1,2000,4,-103.0,2,1,2,8,I,0,0
4,2,2,14,1253,1,1777,1,50,1,1103.0,1,2,2,E,8,0,0
4,2,2,15,3125,1,3931,1,450,3,2675.0,1,1,1,U,I,0,0
4,2,2,16,709,1,1551,1,50,2,559.0,2,2,1,7,4,0,0
4,2,2,17,1127,1,1800,1,1000,4,127.0,2,1,2,2,I,0,0
4,2,2,18,2582,1,1723,1,2000,1,582.0,1,2,2,M,8,0,0
4,2,2,19,870,1,982,1,450,1,420.0,1,2,2,G,4,0,0
4,2,2,20,1162,1,877,1,1000,2,162.0,2,2,1,2,3,0,0
4,2,2,21,2204,1,1759,1,2000,1,204.0,1,2,2,I,8,0,0
4,2,2,22,1180,1,1354,0,50,1,1030.0,1,2,2,R,4,0,0
4,2,2,23,1958,1,926,1,2000,3,-42.0,1,1,1,I,K,0,0
4,2,2,24,1264,1,2727,1,50,4,1114.0,2,1,2,6,I,0,0
4,2,2,25,1700,1,1875,1,1000,3,700.0,1,1,1,R,U,0,0
4,2,2,26,974,1,1470,1,50,3,824.0,1,1,1,K,I,0,0
4,2,2,27,611,0,444,1,450,1,161.0,1,2,2,I,9,0,0
4,2,2,28,781,1,1621,1,1000,1,-219.0,1,2,2,G,1,0,0
4,2,2,29,748,1,619,0,2000,4,-1252.0,2,1,2,6,R,0,0
4,2,2,30,1177,1,2012,0,50,2,1027.0,2,2,1,3,2,0,0
4,2,2,31,793,1,912,1,2000,2,-1207.0,2,2,1,7,3,0,0
4,2,2,32,1091,1,2312,1,450,2,641.0,2,2,1,3,6,0,0
4,2,2,33,763,1,1338,1,2000,3,-1237.0,1,1,1,G,M,0,0
4,2,2,34,812,1,856,1,50,3,662.0,1,1,1,M,G,0,0
4,2,2,35,602,0,1201,1,1000,2,-398.0,2,2,1,7,6,0,0
4,2,2,36,913,1,912,1,2000,2,-1087.0,2,2,1,4,7,0,0
4,2,2,37,1083,1,1025,1,1000,3,83.0,1,1,1,U,A,0,0
4,2,2,38,640,1,739,1,450,3,190.0,1,1,1,G,A,0,0
4,2,2,39,1046,1,1128,1,450,2,596.0,2,2,1,9,7,0,0
4,2,2,40,573,1,1368,1,450,1,123.0,1,2,2,K,1,0,0
4,2,2,41,1020,1,1945,1,50,2,870.0,2,2,1,1,2,0,0
4,2,2,42,997,1,1108,1,1000,1,-3.0,1,2,2,E,3,0,0
4,2,2,43,854,1,1059,1,50,3,704.0,1,1,1,E,G,0,0
4,2,2,44,707,1,1307,1,50,1,557.0,1,2,2,K,7,0,0
4,2,2,45,1791,1,2244,1,450,4,1341.0,2,1,2,3,I,0,0
4,2,2,46,770,1,745,1,1000,4,-230.0,2,1,2,9,E,0,0
4,2,2,47,668,1,947,0,1000,2,-332.0,2,2,1,8,6,0,0
4,2,2,48,2211,1,1029,1,2000,3,211.0,1,1,1,U,M,0,0
4,2,2,49,1105,1,881,1,2000,1,-895.0,1,2,2,R,3,0,0
4,2,2,50,686,1,677,1,2000,2,-1314.0,2,2,1,8,1,0,0
4,2,2,51,1097,1,1728,1,50,4,947.0,2,1,2,3,G,0,0
4,2,2,52,1037,1,1110,1,450,3,587.0,1,1,1,A,I,0,0
4,2,2,53,916,0,968,1,450,4,466.0,2,1,2,3,U,0,0
4,2,2,54,618,1,745,0,1000,1,-382.0,1,2,2,K,4,0,0
4,2,2,55,939,1,1081,1,1000,3,-61.0,1,1,1,K,E,0,0
4,2,2,56,1118,1,1535,1,50,4,968.0,2,1,2,9,A,0,0
4,2,2,57,1040,1,1231,1,2000,1,-960.0,1,2,2,I,2,0,0
4,2,2,58,1062,1,766,1,2000,4,-938.0,2,1,2,1,A,0,0
4,2,2,59,805,1,843,1,50,2,655.0,2,2,1,1,3,0,0
4,2,2,60,572,1,715,1,1000,4,-428.0,2,1,2,7,R,0,0
4,2,2,61,1068,1,1174,1,50,4,918.0,2,1,2,6,E,0,0
4,2,2,62,605,1,620,1,1000,4,-395.0,2,1,2,6,K,0,0
4,2,2,63,673,1,1056,1,50,3,523.0,1,1,1,M,U,0,0
4,2,2,64,1015,1,551,1,2000,3,-985.0,1,1,1,I,G,0,0
4,2,2,65,760,1,703,1,1000,2,-240.0,2,2,1,4,2,0,0
4,3,2,1,1638,1,1639,0,450,2,1188.0,2,2,1,7,9,0,0
4,3,2,2,832,1,583,1,1000,2,-168.0,2,2,1,6,8,0,0
4,3,2,3,735,1,1047,1,2000,4,-1265.0,2,1,2,7,I,0,0
4,3,2,4,661,1,620,1,1000,3,-339.0,1,1,1,M,I,0,0
4,3,2,5,1146,1,617,1,2000,2,-854.0,2,2,1,6,2,0,0
4,3,2,6,711,1,791,1,450,1,261.0,1,2,2,K,9,0,0
4,3,2,7,692,1,920,1,450,4,242.0,2,1,2,8,R,0,0
4,3,2,8,443,1,1010,1,1000,4,-557.0,2,1,2,2,G,0,0
4,3,2,9,1224,1,1840,1,50,1,1074.0,1,2,2,E,2,0,0
4,3,2,10,1038,0,1363,0,50,2,888.0,2,2,1,9,8,0,0
4,3,2,11,1239,1,1082,1,450,3,789.0,1,1,1,I,R,0,0
4,3,2,12,2120,1,2088,1,450,1,1670.0,1,2,2,A,8,0,0
4,3,2,13,991,1,1047,1,50,3,841.0,1,1,1,M,E,0,0
4,3,2,14,694,0,901,1,2000,4,-1306.0,2,1,2,9,U,0,0
4,3,2,15,1536,1,1740,1,50,4,1386.0,2,1,2,1,M,0,0
4,3,2,16,657,1,685,1,450,2,207.0,2,2,1,2,6,0,0
4,3,2,17,721,1,666,1,450,3,271.0,1,1,1,U,E,0,0
4,3,2,18,563,1,1379,1,2000,1,-1437.0,1,2,2,R,6,0,0
4,3,2,19,1179,1,956,1,450,4,729.0,2,1,2,7,U,0,0
4,3,2,20,624,1,808,1,1000,4,-376.0,2,1,2,1,I,0,0
4,3,2,21,623,1,614,1,1000,2,-377.0,2,2,1,9,2,0,0
4,3,2,22,596,1,844,1,2000,2,-1404.0,2,2,1,3,9,0,0
4,3,2,23,699,1,714,1,1000,1,-301.0,1,2,2,I,6,0,0
4,3,2,24,885,1,1119,1,50,1,735.0,1,2,2,M,1,0,0
4,3,2,25,1671,1,1385,1,450,1,1221.0,1,2,2,I,4,0,0
4,3,2,26,596,1,733,1,450,2,146.0,2,2,1,8,7,0,0
4,3,2,27,755,1,594,1,1000,3,-245.0,1,1,1,R,I,0,0
4,3,2,28,841,1,897,1,50,2,691.0,2,2,1,6,1,0,0
4,3,2,29,725,1,1301,1,50,4,575.0,2,1,2,9,G,0,0
4,3,2,30,577,1,496,1,2000,4,-1423.0,2,1,2,8,A,0,0
4,3,2,31,813,1,708,1,2000,3,-1187.0,1,1,1,A,R,0,0
4,3,2,32,598,1,961,0,450,4,148.0,2,1,2,4,M,0,0
4,3,2,33,1012,1,923,1,2000,1,-988.0,1,2,2,E,1,0,0
4,3,2,34,637,1,693,1,1000,3,-363.0,1,1,1,E,M,0,0
4,3,2,35,665,1,689,1,2000,3,-1335.0,1,1,1,M,K,0,0
4,3,2,36,484,1,708,1,50,3,334.0,1,1,1,G,I,0,0
4,3,2,37,830,1,904,1,450,3,380.0,1,1,1,E,I,0,0
4,3,2,38,1015,1,742,1,2000,2,-985.0,2,2,1,9,6,0,0
4,3,2,39,600,1,527,1,1000,2,-400.0,2,2,1,4,6,0,0
4,3,2,40,705,1,1375,1,50,1,555.0,1,2,2,R,2,0,0
4,3,2,41,707,1,586,1,2000,4,-1293.0,2,1,2,4,A,0,0
4,3,2,42,554,1,569,1,2000,3,-1446.0,1,1,1,R,G,0,0
4,3,2,43,714,1,746,0,1000,1,-286.0,1,2,2,U,9,0,0
4,3,2,44,739,1,978,1,1000,3,-261.0,1,1,1,E,U,0,0
4,3,2,45,1002,1,1269,1,50,4,852.0,2,1,2,1,K,0,0
4,3,2,46,718,1,1201,1,50,2,568.0,2,2,1,4,1,0,0
4,3,2,47,1134,1,1179,1,450,4,684.0,2,1,2,7,M,0,0
4,3,2,48,1131,1,955,1,2000,1,-869.0,1,2,2,I,3,0,0
4,3,2,49,971,1,1584,1,50,1,821.0,1,2,2,R,9,0,0
4,3,2,50,1460,1,1667,1,450,2,1010.0,2,2,1,2,9,0,0
4,3,2,51,1421,1,1270,1,450,3,971.0,1,1,1,I,U,0,0
4,3,2,52,806,1,653,0,1000,4,-194.0,2,1,2,8,U,0,0
4,3,2,53,611,1,593,0,1000,1,-389.0,1,2,2,M,2,0,0
4,3,2,54,1233,0,1266,1,50,3,1083.0,1,1,1,G,R,0,0
4,3,2,55,1262,1,726,0,2000,2,-738.0,2,2,1,9,3,0,0
4,3,2,56,1136,1,911,1,450,1,686.0,1,2,2,R,1,0,0
4,3,2,57,783,1,1067,0,450,2,333.0,2,2,1,7,8,0,0
4,3,2,58,1071,1,1461,1,50,4,921.0,2,1,2,3,A,0,0
4,3,2,59,590,1,589,1,1000,3,-410.0,1,1,1,R,M,0,0
4,3,2,60,747,1,782,1,450,3,297.0,1,1,1,K,A,0,0
4,3,2,61,1247,1,1581,0,50,1,1097.0,1,2,2,E,4,0,0
4,3,2,62,583,1,868,0,450,1,133.0,1,2,2,A,9,0,0
4,3,2,63,816,1,775,1,2000,4,-1184.0,2,1,2,3,M,0,0
4,3,2,64,887,1,2124,1,50,2,737.0,2,2,1,9,4,0,0
4,3,2,65,731,1,1250,1,1000,2,-269.0,2,2,1,7,2,0,0
4,4,2,1,1189,1,1536,1,1000,1,189.0,1,2,2,R,7,0,0
4,4,2,2,613,1,644,1,2000,3,-1387.0,1,1,1,M,R,0,0
4,4,2,3,643,1,586,1,2000,2,-1357.0,2,2,1,1,7,0,0
4,4,2,4,657,1,693,1,450,4,207.0,2,1,2,9,K,0,0
4,4,2,5,1185,0,1783,0,450,2,735.0,2,2,1,1,6,0,0
4,4,2,6,965,1,940,1,50,3,815.0,1,1,1,G,K,0,0
4,4,2,7,800,1,935,1,2000,1,-1200.0,1,2,2,A,6,0,0
4,4,2,8,785,1,816,1,1000,4,-215.0,2,1,2,8,E,0,0
4,4,2,9,542,1,614,1,2000,4,-1458.0,2,1,2,1,R,0,0
4,4,2,10,684,1,497,1,450,3,234.0,1,1,1,R,K,0,0
4,4,2,11,435,1,670,1,50,4,285.0,2,1,2,3,R,0,0
4,4,2,12,952,1,1275,1,50,1,802.0,1,2,2,I,1,0,0
4,4,2,13,637,1,849,0,50,2,487.0,2,2,1,1,8,0,0
4,4,2,14,1355,1,2405,1,450,1,905.0,1,2,2,U,4,0,0
4,4,2,15,1062,1,745,1,1000,2,62.0,2,2,1,6,4,0,0
4,4,2,16,1590,1,1630,1,50,2,1440.0,2,2,1,2,1,0,0
4,4,2,17,734,1,756,1,2000,1,-1266.0,1,2,2,U,6,0,0
4,4,2,18,853,1,1129,1,50,3,703.0,1,1,1,K,U,0,0
4,4,2,19,1999,1,1285,1,1000,4,999.0,2,1,2,2,R,0,0
4,4,2,20,995,1,490,1,1000,1,-5.0,1,2,2,U,1,0,0
4,4,2,21,534,1,782,1,2000,1,-1466.0,1,2,2,M,9,0,0
4,4,2,22,637,1,613,1,450,4,187.0,2,1,2,2,K,0,0
4,4,2,23,681,1,664,1,1000,2,-319.0,2,2,1,8,9,0,0
4,4,2,24,572,1,646,1,450,2,122.0,2,2,1,2,8,0,0
4,4,2,25,710,1,805,1,1000,3,-290.0,1,1,1,A,E,0,0
4,4,2,26,1757,1,764,1,2000,2,-243.0,2,2,1,2,7,0,0
4,4,2,27,509,1,1108,1,1000,4,-491.0,2,1,2,8,G,0,0
4,4,2,28,839,1,862,0,2000,4,-1161.0,2,1,2,7,E,0,0
4,4,2,29,572,1,427,1,2000,3,-1428.0,1,1,1,K,R,0,0
4,4,2,30,625,1,782,1,450,1,175.0,1,2,2,K,3,0,0
4,4,2,31,933,1,1030,1,50,1,783.0,1,2,2,K,6,0,0
4,4,2,32,1555,1,1913,1,50,4,1405.0,2,1,2,1,E,0,0
4,4,2,33,623,1,658,1,450,2,173.0,2,2,1,3,8,0,0
4,4,2,34,610,1,720,1,1000,1,-390.0,1,2,2,U,2,0,0
4,4,2,35,1546,1,1567,1,50,1,1396.0,1,2,2,A,4,0,0
4,4,2,36,531,1,901,1,450,3,81.0,1,1,1,I,M,0,0
4,4,2,37,690,1,862,1,450,1,240.0,1,2,2,M,4,0,0
4,4,2,38,692,1,668,1,2000,2,-1308.0,2,2,1,6,9,0,0
4,4,2,39,2272,1,2334,1,50,3,2122.0,1,1,1,E,A,0,0
4,4,2,40,1018,1,1045,1,50,2,868.0,2,2,1,4,3,0,0
4,4,2,41,753,1,864,1,1000,2,-247.0,2,2,1,8,4,0,0
4,4,2,42,628,1,748,1,450,4,178.0,2,1,2,3,E,0,0
4,4,2,43,715,1,619,1,2000,4,-1285.0,2,1,2,4,I,0,0
4,4,2,44,889,0,649,1,2000,3,-1111.0,1,1,1,U,K,0,0
4,4,2,45,493,1,1051,1,450,4,43.0,2,1,2,6,M,0,0
4,4,2,46,744,1,615,1,1000,1,-256.0,1,2,2,G,7,0,0
4,4,2,47,989,1,620,1,2000,1,-1011.0,1,2,2,U,8,0,0
4,4,2,48,708,1,754,1,1000,3,-292.0,1,1,1,U,G,0,0
4,4,2,49,987,1,1063,1,50,3,837.0,1,1,1,R,A,0,0
4,4,2,50,640,1,699,1,450,3,190.0,1,1,1,A,M,0,0
4,4,2,51,743,1,1258,1,50,2,593.0,2,2,1,4,9,0,0
4,4,2,52,678,1,629,1,2000,2,-1322.0,2,2,1,3,4,0,0
4,4,2,53,620,1,611,1,2000,3,-1380.0,1,1,1,M,A,0,0
4,4,2,54,651,1,618,1,1000,3,-349.0,1,1,1,E,K,0,0
4,4,2,55,945,0,543,1,2000,3,-1055.0,1,1,1,U,R,0,0
4,4,2,56,504,1,697,1,450,1,54.0,1,2,2,G,6,0,0
4,4,2,57,704,1,599,1,1000,2,-296.0,2,2,1,9,1,0,0
4,4,2,58,638,1,645,1,1000,1,-362.0,1,2,2,A,2,0,0
4,4,2,59,739,1,586,1,1000,4,-261.0,2,1,2,2,A,0,0
4,4,2,60,3522,1,3445,1,450,2,3072.0,2,2,1,3,7,0,0
4,4,2,61,613,1,898,1,50,4,463.0,2,1,2,2,E,0,0
4,4,2,62,699,1,480,1,1000,4,-301.0,2,1,2,7,G,0,0
4,4,2,63,491,1,311,1,450,3,41.0,1,1,1,K,M,0,0
4,4,2,64,986,1,1069,1,50,4,836.0,2,1,2,3,K,0,0
4,4,2,65,656,1,703,1,2000,1,-1344.0,1,2,2,M,7,0,0
4,5,2,1,639,1,634,0,450,4,189.0,2,1,2,4,G,0,0
4,5,2,2,610,1,765,1,50,1,460.0,1,2,2,A,1,0,0
4,5,2,3,588,1,612,1,2000,1,-1412.0,1,2,2,K,8,0,0
4,5,2,4,1434,1,1168,1,450,1,984.0,1,2,2,G,8,0,0
4,5,2,5,831,1,822,1,50,3,681.0,1,1,1,I,A,0,0
4,5,2,6,574,1,686,1,1000,1,-426.0,1,2,2,I,7,0,0
4,5,2,7,578,1,545,1,1000,3,-422.0,1,1,1,A,U,0,0
4,5,2,8,578,1,686,1,50,2,428.0,2,2,1,1,7,0,0
4,5,2,9,647,1,342,0,2000,4,-1353.0,2,1,2,6,U,0,0
4,5,2,10,1183,1,1175,1,50,3,1033.0,1,1,1,M,U,0,0
4,5,2,11,1183,1,1288,1,50,4,1033.0,2,1,2,2,M,0,0
4,5,2,12,603,1,459,1,450,2,153.0,2,2,1,4,2,0,0
4,5,2,13,581,1,733,1,2000,3,-1419.0,1,1,1,K,E,0,0
4,5,2,14,1629,1,1634,1,50,1,1479.0,1,2,2,E,9,0,0
4,5,2,15,611,1,651,1,450,4,161.0,2,1,2,6,G,0,0
4,5,2,16,709,1,779,1,450,1,259.0,1,2,2,R,8,0,0
4,5,2,17,699,1,642,1,2000,2,-1301.0,2,2,1,2,4,0,0
4,5,2,18,2095,1,1834,1,1000,1,1095.0,1,2,2,G,9,0,0
4,5,2,19,861,1,1028,1,1000,4,-139.0,2,1,2,9,M,0,0
4,5,2,20,683,1,826,0,1000,2,-317.0,2,2,1,3,9,0,0
4,5,2,21,617,1,680,1,2000,1,-1383.0,1,2,2,G,3,0,0
4,5,2,22,701,1,700,1,2000,2,-1299.0,2,2,1,8,2,0,0
4,5,2,23,687,1,678,1,1000,2,-313.0,2,2,1,4,3,0,0
4,5,2,24,714,1,708,1,450,3,264.0,1,1,1,E,K,0,0
4,5,2,25,665,0,564,1,450,2,215.0,2,2,1,7,8,0,0
4,5,2,26,550,1,582,1,2000,4,-1450.0,2,1,2,7,K,0,0
4,5,2,27,1029,0,2270,1,450,4,579.0,2,1,2,1,G,0,0
4,5,2,28,1199,1,717,1,1000,3,199.0,1,1,1,M,I,0,0
4,5,2,29,1264,1,819,1,1000,4,264.0,2,1,2,7,A,0,0
4,5,2,30,1069,1,1175,1,50,4,919.0,2,1,2,6,A,0,0
4,5,2,31,884,1,894,1,50,2,734.0,2,2,1,1,9,0,0
4,5,2,32,704,1,561,1,450,2,254.0,2,2,1,4,8,0,0
4,5,2,33,589,1,719,1,450,3,139.0,1,1,1,R,U,0,0
4,5,2,34,988,1,1066,1,50,1,838.0,1,2,2,E,7,0,0
4,5,2,35,618,1,786,1,2000,4,-1382.0,2,1,2,4,E,0,0
4,5,2,36,746,1,545,1,1000,4,-254.0,2,1,2,7,G,0,0
4,5,2,37,475,1,842,1,2000,3,-1525.0,1,1,1,A,E,0,0
4,5,2,38,735,1,831,0,2000,2,-1265.0,2,2,1,9,6,0,0
4,5,2,39,534,1,676,1,1000,2,-466.0,2,2,1,1,4,0,0
4,5,2,40,640,1,635,1,450,4,190.0,2,1,2,2,U,0,0
4,5,2,41,611,1,554,1,1000,1,-389.0,1,2,2,R,7,0,0
4,5,2,42,611,1,954,1,450,1,161.0,1,2,2,M,6,0,0
4,5,2,43,1152,1,1443,1,50,1,1002.0,1,2,2,G,9,0,0
4,5,2,44,1703,1,1715,1,50,2,1553.0,2,2,1,6,4,0,0
4,5,2,45,460,1,603,1,2000,1,-1540.0,1,2,2,I,9,0,0
4,5,2,46,634,1,537,1,1000,3,-366.0,1,1,1,E,A,0,0
4,5,2,47,1634,1,1675,1,50,3,1484.0,1,1,1,M,A,0,0
4,5,2,48,639,1,599,1,2000,3,-1361.0,1,1,1,I,E,0,0
4,5,2,49,598,1,717,1,1000,3,-402.0,1,1,1,I,M,0,0
4,5,2,50,878,1,1122,0,50,4,728.0,2,1,2,7,U,0,0
4,5,2,51,617,1,798,1,450,1,167.0,1,2,2,G,6,0,0
4,5,2,52,749,1,733,1,2000,2,-1251.0,2,2,1,7,3,0,0
4,5,2,53,693,1,1024,1,50,3,543.0,1,1,1,R,G,0,0
4,5,2,54,732,1,607,1,450,3,282.0,1,1,1,M,K,0,0
4,5,2,55,800,1,647,1,2000,1,-1200.0,1,2,2,I,1,0,0
4,5,2,56,510,1,621,1,2000,4,-1490.0,2,1,2,1,K,0,0
4,5,2,57,835,1,981,0,50,2,685.0,2,2,1,3,1,0,0
4,5,2,58,843,1,587,1,1000,1,-157.0,1,2,2,A,1,0,0
4,5,2,59,539,1,834,1,1000,3,-461.0,1,1,1,K,U,0,0
4,5,2,60,1064,1,954,1,450,2,614.0,2,2,1,4,6,0,0
4,5,2,61,582,1,644,0,1000,2,-418.0,2,2,1,1,2,0,0
4,5,2,62,1065,1,1014,1,1000,4,65.0,2,1,2,3,I,0,0
4,5,2,63,821,1,923,1,50,3,671.0,1,1,1,G,K,0,0
4,5,2,64,905,1,488,1,2000,4,-1095.0,2,1,2,1,R,0,0
4,5,2,65,891,1,996,1,50,4,741.0,2,1,2,6,A,0,0
11,1,1,1,1089,1,1520,1,2000,4,-911.0,2,1,2,2,U,0,0
11,1,1,2,659,1,1722,1,1000,2,-341.0,2,2,1,2,8,0,0
11,1,1,3,1188,1,1231,1,1000,1,188.0,1,2,2,G,2,0,0
11,1,1,4,857,1,1280,0,1000,3,-143.0,1,1,1,A,I,0,0
11,1,1,5,2932,0,3372,0,50,2,2782.0,2,2,1,9,3,0,0
11,1,1,6,1429,1,1391,1,450,4,979.0,2,1,2,2,K,0,0
11,1,1,7,883,1,1091,1,2000,3,-1117.0,1,1,1,I,R,0,0
11,1,1,8,1214,1,1476,1,50,1,1064.0,1,2,2,E,3,0,0
11,1,1,9,1442,1,2224,1,450,2,992.0,2,2,1,3,9,0,0
11,1,1,10,1149,1,1173,1,50,4,999.0,2,1,2,7,A,0,0
11,1,1,11,597,1,816,1,450,3,147.0,1,1,1,I,A,0,0
11,1,1,12,834,1,1265,0,2000,1,-1166.0,1,2,2,U,8,0,0
11,1,1,13,1373,1,1532,1,50,3,1223.0,1,1,1,M,U,0,0
11,1,1,14,1120,1,914,1,1000,4,120.0,2,1,2,8,E,0,0
11,1,1,15,665,1,772,1,450,1,215.0,1,2,2,M,3,0,0
11,1,1,16,1110,1,693,1,2000,2,-890.0,2,2,1,7,8,0,0
11,1,1,17,681,0,776,1,2000,4,-1319.0,2,1,2,1,A,0,0
11,1,1,18,689,1,721,1,2000,3,-1311.0,1,1,1,I,U,0,0
11,1,1,19,571,1,547,1,1000,2,-429.0,2,2,1,2,9,0,0
11,1,1,20,613,1,892,1,2000,1,-1387.0,1,2,2,U,7,0,0
11,1,1,21,1439,1,1894,1,50,2,1289.0,2,2,1,7,6,0,0
11,1,1,22,580,1,915,1,1000,3,-420.0,1,1,1,G,E,0,0
11,1,1,23,991,1,1093,1,1000,4,-9.0,2,1,2,1,M,0,0
11,1,1,24,944,1,948,1,50,1,794.0,1,2,2,R,8,0,0
11,2,2,1,667,1,851,1,2000,2,-1333.0,2,2,1,7,3,0,0
11,2,2,2,1118,0,4373,1,450,1,668.0,1,2,2,A,3,0,0
11,2,2,3,636,1,715,1,450,2,186.0,2,2,1,8,3,0,0
11,2,2,4,635,1,813,1,50,3,485.0,1,1,1,I,G,0,0
11,2,2,5,435,1,698,1,1000,1,-565.0,1,2,2,A,4,0,0
11,2,2,6,590,1,598,1,2000,1,-1410.0,1,2,2,G,3,0,0
11,2,2,7,1045,1,1345,1,50,4,895.0,2,1,2,4,R,0,0
11,2,2,8,584,1,599,1,1000,2,-416.0,2,2,1,6,9,0,0
11,2,2,9,502,1,541,1,2000,2,-1498.0,2,2,1,3,2,0,0
11,2,2,10,606,1,761,1,450,4,156.0,2,1,2,3,K,0,0
11,2,2,11,715,1,1206,1,450,3,265.0,1,1,1,U,M,0,0
11,2,2,12,632,1,823,1,1000,4,-368.0,2,1,2,3,U,0,0
11,2,2,13,693,1,1032,1,50,4,543.0,2,1,2,6,R,0,0
11,2,2,14,748,1,751,1,450,1,298.0,1,2,2,G,4,0,0
11,2,2,15,449,1,609,1,50,3,299.0,1,1,1,A,G,0,0
11,2,2,16,624,1,660,1,450,2,174.0,2,2,1,1,2,0,0
11,2,2,17,520,1,344,0,450,4,70.0,2,1,2,7,K,0,0
11,2,2,18,966,1,1142,1,50,1,816.0,1,2,2,K,4,0,0
11,2,2,19,569,1,648,1,1000,1,-431.0,1,2,2,U,2,0,0
11,2,2,20,709,1,1015,1,50,2,559.0,2,2,1,9,4,0,0
11,2,2,21,812,1,1161,1,50,1,662.0,1,2,2,G,6,0,0
11,2,2,22,670,1,574,1,2000,1,-1330.0,1,2,2,E,7,0,0
11,2,2,23,765,1,1000,1,450,3,315.0,1,1,1,E,G,0,0
11,2,2,24,730,1,641,1,2000,4,-1270.0,2,1,2,8,A,0,0
11,2,2,25,470,1,598,1,1000,3,-530.0,1,1,1,R,A,0,0
11,2,2,26,501,1,517,1,2000,3,-1499.0,1,1,1,U,I,0,0
11,2,2,27,559,1,517,1,450,1,109.0,1,2,2,A,9,0,0
11,2,2,28,567,1,647,1,1000,1,-433.0,1,2,2,I,8,0,0
11,2,2,29,588,1,493,1,450,4,138.0,2,1,2,8,G,0,0
11,2,2,30,573,1,572,1,2000,2,-1427.0,2,2,1,6,8,0,0
11,2,2,31,668,1,466,0,450,2,218.0,2,2,1,6,2,0,0
11,2,2,32,494,1,773,1,1000,2,-506.0,2,2,1,8,1,0,0
11,2,2,33,796,1,969,1,50,3,646.0,1,1,1,K,R,0,0
11,2,2,34,606,1,597,1,1000,3,-394.0,1,1,1,I,E,0,0
11,2,2,35,860,1,823,1,50,2,710.0,2,2,1,8,6,0,0
11,2,2,36,452,1,465,1,450,2,2.0,2,2,1,2,3,0,0
11,2,2,37,549,1,556,1,2000,3,-1451.0,1,1,1,M,R,0,0
11,2,2,38,477,1,476,1,450,3,27.0,1,1,1,R,K,0,0
11,2,2,39,749,1,877,0,50,2,599.0,2,2,1,7,9,0,0
11,2,2,40,617,1,666,1,50,1,467.0,1,2,2,I,2,0,0
11,2,2,41,1103,1,751,1,2000,2,-897.0,2,2,1,1,9,0,0
11,2,2,42,672,1,750,1,1000,1,-328.0,1,2,2,I,1,0,0
11,2,2,43,696,1,599,1,1000,3,-304.0,1,1,1,R,G,0,0
11,2,2,44,1109,0,1443,1,450,1,659.0,1,2,2,R,6,0,0
