riskyGain,riskyLoss,alternative,choice,outcome,latency,day,trial,studyNum,regulation,propranolol,stress,withinSubID,subjectid,risk_probability,expected_value,previous_choice,previous_outcome,consecutive_nos_before
8.0,-16.0,0.0,0,0.0,482,1,2,1,1,0,0,29,1,0.5,-4.0,,,0
9.0,-5.63,0.0,1,-5.63,525,1,3,1,1,0,0,29,1,0.5,1.685,0.0,0.0,1
9.0,-4.5,0.0,1,9.0,332,1,4,1,1,0,0,29,1,0.5,2.25,1.0,-5.63,0
2.0,-2.0,0.0,1,2.0,280,1,5,1,1,0,0,29,1,0.5,0.0,1.0,9.0,0
12.0,-19.5,0.0,0,0.0,348,1,6,1,1,0,0,29,1,0.5,-3.75,1.0,2.0,0
4.0,-4.5,0.0,1,4.0,554,1,7,1,1,0,0,29,1,0.5,-0.25,0.0,0.0,1
2.0,-3.75,0.0,1,-3.75,969,1,8,1,1,0,0,29,1,0.5,-0.875,1.0,4.0,0
2.0,-2.25,0.0,0,0.0,776,1,9,1,1,0,0,29,1,0.5,-0.125,1.0,-3.75,0
12.0,-4.5,0.0,1,-4.5,465,1,10,1,1,0,0,29,1,0.5,3.75,0.0,0.0,1
2.0,-1.0,0.0,1,2.0,505,1,11,1,0,0,0,29,1,0.5,0.5,1.0,-4.5,0
9.0,-13.5,0.0,0,0.0,352,1,12,1,0,0,0,29,1,0.5,-2.25,1.0,2.0,0
5.0,-6.88,0.0,0,0.0,880,1,13,1,0,0,0,29,1,0.5,-0.94,0.0,0.0,1
10.0,-10.0,0.0,0,0.0,1097,1,14,1,0,0,0,29,1,0.5,0.0,0.0,0.0,2
6.0,-2.25,0.0,1,6.0,850,1,15,1,0,0,0,29,1,0.5,1.875,0.0,0.0,3
6.0,-6.75,0.0,0,0.0,351,1,16,1,0,0,0,29,1,0.5,-0.375,1.0,6.0,0
9.0,-4.5,0.0,1,-4.5,435,1,17,1,0,0,0,29,1,0.5,2.25,0.0,0.0,1
10.0,-13.75,0.0,0,0.0,519,1,18,1,0,0,0,29,1,0.5,-1.875,1.0,-4.5,0
6.0,-8.25,0.0,0,0.0,658,1,19,1,0,0,0,29,1,0.5,-1.125,0.0,0.0,1
5.0,-10.0,0.0,0,0.0,378,1,20,1,0,0,0,29,1,0.5,-2.5,0.0,0.0,2
10.0,-6.25,0.0,1,10.0,525,1,21,1,0,0,0,29,1,0.5,1.875,0.0,0.0,3
12.0,-3.0,0.0,1,-3.0,286,1,22,1,0,0,0,29,1,0.5,4.5,1.0,10.0,0
12.0,-9.0,0.0,0,0.0,558,1,23,1,0,0,0,29,1,0.5,1.5,1.0,-3.0,0
8.0,-7.0,0.0,0,0.0,736,1,24,1,0,0,0,29,1,0.5,0.5,0.0,0.0,1
6.0,-12.0,0.0,0,0.0,580,1,25,1,0,0,0,29,1,0.5,-3.0,0.0,0.0,2
8.0,-2.0,0.0,1,-2.0,404,1,26,1,0,0,0,29,1,0.5,3.0,0.0,0.0,3
12.0,-6.0,0.0,1,-6.0,594,1,27,1,0,0,0,29,1,0.5,3.0,1.0,-2.0,0
3.0,0.0,1.0,0,1.0,310,1,28,1,0,0,0,29,1,0.5,1.5,1.0,-6.0,0
10.0,-20.0,0.0,1,10.0,711,1,29,1,0,0,0,29,1,0.5,-5.0,0.0,1.0,1
5.0,-3.75,0.0,0,0.0,796,1,30,1,0,0,0,29,1,0.5,0.625,1.0,10.0,0
2.0,-1.75,0.0,0,0.0,761,1,31,1,0,0,0,29,1,0.5,0.125,0.0,0.0,1
6.0,-3.75,0.0,1,-3.75,359,1,32,1,0,0,0,29,1,0.5,1.125,0.0,0.0,2
9.0,-12.38,0.0,0,0.0,335,1,33,1,0,0,0,29,1,0.5,-1.6900000000000004,1.0,-3.75,0
5.0,-6.25,0.0,0,0.0,356,1,34,1,0,0,0,29,1,0.5,-0.625,0.0,0.0,1
12.0,0.0,4.0,1,12.0,839,1,35,1,0,0,0,29,1,0.5,6.0,0.0,0.0,2
2.0,-1.5,0.0,0,0.0,603,1,36,1,0,0,0,29,1,0.5,0.25,1.0,12.0,0
6.0,-5.25,0.0,0,0.0,568,1,37,1,0,0,0,29,1,0.5,0.375,0.0,0.0,1
10.0,-18.75,0.0,0,0.0,373,1,38,1,0,0,0,29,1,0.5,-4.375,0.0,0.0,2
6.0,-6.0,0.0,0,0.0,547,1,39,1,0,0,0,29,1,0.5,0.0,0.0,0.0,3
12.0,0.0,5.0,1,12.0,348,1,40,1,0,0,0,29,1,0.5,6.0,0.0,0.0,4
9.0,-10.13,0.0,0,0.0,1311,1,41,1,1,0,0,29,1,0.5,-0.5650000000000004,1.0,12.0,0
12.0,-3.0,0.0,1,12.0,515,1,42,1,1,0,0,29,1,0.5,4.5,0.0,0.0,1
10.0,-17.5,0.0,0,0.0,1102,1,43,1,1,0,0,29,1,0.5,-3.75,1.0,12.0,0
5.0,-4.38,0.0,1,-4.38,662,1,44,1,1,0,0,29,1,0.5,0.31,0.0,0.0,1
5.0,-7.5,0.0,0,0.0,368,1,45,1,1,0,0,29,1,0.5,-1.25,1.0,-4.38,0
6.0,-11.25,0.0,0,0.0,349,1,46,1,1,0,0,29,1,0.5,-2.625,0.0,0.0,1
2.0,-1.5,0.0,1,-1.5,579,1,47,1,1,0,0,29,1,0.5,0.25,0.0,0.0,2
9.0,-6.75,0.0,1,-6.75,401,1,48,1,1,0,0,29,1,0.5,1.125,1.0,-1.5,0
4.0,-7.0,0.0,0,0.0,354,1,49,1,1,0,0,29,1,0.5,-1.5,1.0,-6.75,0
8.0,-7.0,0.0,1,8.0,324,1,50,1,1,0,0,29,1,0.5,0.5,0.0,0.0,1
2.0,-1.75,0.0,1,2.0,488,1,51,1,1,0,0,29,1,0.5,0.125,1.0,8.0,0
2.0,-1.0,0.0,1,2.0,403,1,52,1,1,0,0,29,1,0.5,0.5,1.0,2.0,0
10.0,-6.25,0.0,1,-6.25,339,1,53,1,1,0,0,29,1,0.5,1.875,1.0,2.0,0
6.0,-6.75,0.0,0,0.0,334,1,54,1,1,0,0,29,1,0.5,-0.375,1.0,-6.25,0
9.0,-2.25,0.0,1,-2.25,429,1,55,1,1,0,0,29,1,0.5,3.375,0.0,0.0,1
2.0,-0.75,0.0,1,2.0,365,1,56,1,1,0,0,29,1,0.5,0.625,1.0,-2.25,0
12.0,0.0,4.0,1,12.0,628,1,57,1,1,0,0,29,1,0.5,6.0,1.0,2.0,0
6.0,-3.0,0.0,1,-3.0,367,1,58,1,1,0,0,29,1,0.5,1.5,1.0,12.0,0
3.0,0.0,1.0,1,3.0,402,1,59,1,1,0,0,29,1,0.5,1.5,1.0,-3.0,0
2.0,-3.0,0.0,0,0.0,360,1,60,1,1,0,0,29,1,0.5,-0.5,1.0,3.0,0
4.0,-2.0,0.0,1,4.0,549,1,61,1,0,0,0,29,1,0.5,1.0,0.0,0.0,1
2.0,-4.0,0.0,0,0.0,444,1,62,1,0,0,0,29,1,0.5,-1.0,1.0,4.0,0
5.0,-2.5,0.0,1,5.0,637,1,63,1,0,0,0,29,1,0.5,1.25,0.0,0.0,1
2.0,-3.75,0.0,0,0.0,869,1,64,1,0,0,0,29,1,0.5,-0.875,1.0,5.0,0
9.0,-15.75,0.0,0,0.0,1457,1,65,1,0,0,0,29,1,0.5,-3.375,0.0,0.0,1
8.0,-4.0,0.0,1,8.0,1365,1,66,1,0,0,0,29,1,0.5,2.0,0.0,0.0,2
26.0,0.0,12.0,1,26.0,1871,1,67,1,0,0,0,29,1,0.5,13.0,1.0,8.0,0
6.0,-1.5,0.0,1,6.0,694,1,68,1,0,0,0,29,1,0.5,2.25,1.0,26.0,0
4.0,-6.0,0.0,0,0.0,400,1,69,1,0,0,0,29,1,0.5,-1.0,1.0,6.0,0
10.0,-2.5,0.0,1,-2.5,491,1,70,1,0,0,0,29,1,0.5,3.75,0.0,0.0,1
8.0,-12.0,0.0,0,0.0,1743,1,71,1,0,0,0,29,1,0.5,-2.0,1.0,-2.5,0
2.0,-3.5,0.0,0,0.0,415,1,72,1,0,0,0,29,1,0.5,-0.75,0.0,0.0,1
5.0,-5.63,0.0,0,0.0,583,1,73,1,0,0,0,29,1,0.5,-0.3149999999999999,0.0,0.0,2
12.0,-24.0,0.0,0,0.0,466,1,74,1,0,0,0,29,1,0.5,-6.0,0.0,0.0,3
25.0,0.0,10.0,1,0.0,482,1,75,1,0,0,0,29,1,0.5,12.5,0.0,0.0,4
4.0,-6.5,0.0,0,0.0,603,1,76,1,0,0,0,29,1,0.5,-1.25,1.0,0.0,0
5.0,-9.38,0.0,0,0.0,523,1,77,1,0,0,0,29,1,0.5,-2.1900000000000004,0.0,0.0,1
5.0,-7.5,0.0,0,0.0,559,1,78,1,0,0,0,29,1,0.5,-1.25,0.0,0.0,2
4.0,-4.0,0.0,1,-4.0,1873,1,79,1,0,0,0,29,1,0.5,0.0,0.0,0.0,3
6.0,-10.5,0.0,0,0.0,1311,1,80,1,0,0,0,29,1,0.5,-2.25,1.0,-4.0,0
10.0,-13.75,0.0,1,-13.75,578,1,81,1,1,0,0,29,1,0.5,-1.875,0.0,0.0,1
6.0,-2.25,0.0,1,6.0,376,1,82,1,1,0,0,29,1,0.5,1.875,1.0,-13.75,0
5.0,-1.88,0.0,1,-1.88,586,1,83,1,1,0,0,29,1,0.5,1.56,1.0,6.0,0
12.0,-13.5,0.0,1,12.0,588,1,84,1,1,0,0,29,1,0.5,-0.75,1.0,-1.88,0
22.0,0.0,10.0,1,22.0,681,1,85,1,1,0,0,29,1,0.5,11.0,1.0,12.0,0
9.0,-12.38,0.0,0,0.0,482,1,86,1,1,0,0,29,1,0.5,-1.6900000000000004,1.0,22.0,0
26.0,0.0,10.0,1,26.0,529,1,87,1,1,0,0,29,1,0.5,13.0,0.0,0.0,1
12.0,-10.5,0.0,1,-10.5,591,1,88,1,1,0,0,29,1,0.5,0.75,1.0,26.0,0
10.0,-2.5,0.0,1,-2.5,868,1,89,1,1,0,0,29,1,0.5,3.75,1.0,-10.5,0
25.0,0.0,10.0,1,25.0,321,1,90,1,1,0,0,29,1,0.5,12.5,1.0,-2.5,0
13.0,0.0,6.0,1,13.0,905,1,91,1,0,0,0,29,1,0.5,6.5,1.0,25.0,0
12.0,-22.5,0.0,0,0.0,753,1,92,1,0,0,0,29,1,0.5,-5.25,1.0,13.0,0
4.0,-7.5,0.0,0,0.0,409,1,93,1,0,0,0,29,1,0.5,-1.75,0.0,0.0,1
5.0,0.0,2.0,1,5.0,608,1,94,1,0,0,0,29,1,0.5,2.5,0.0,0.0,2
10.0,-15.0,0.0,0,0.0,650,1,95,1,0,0,0,29,1,0.5,-2.5,1.0,5.0,0
9.0,-16.88,0.0,0,0.0,391,1,96,1,0,0,0,29,1,0.5,-3.939999999999999,0.0,0.0,1
2.0,-2.5,0.0,0,0.0,445,1,97,1,0,0,0,29,1,0.5,-0.25,0.0,0.0,2
10.0,-16.25,0.0,0,0.0,418,1,98,1,0,0,0,29,1,0.5,-3.125,0.0,0.0,3
6.0,-11.25,0.0,0,0.0,437,1,99,1,0,0,0,29,1,0.5,-2.625,0.0,0.0,4
4.0,-1.5,0.0,1,4.0,493,1,100,1,0,0,0,29,1,0.5,1.25,0.0,0.0,5
9.0,-15.75,0.0,1,9.0,531,1,101,1,1,0,0,29,1,0.5,-3.375,1.0,4.0,0
7.0,0.0,3.0,1,0.0,1329,1,102,1,1,0,0,29,1,0.5,3.5,1.0,9.0,0
10.0,-10.0,0.0,1,10.0,505,1,103,1,1,0,0,29,1,0.5,0.0,1.0,0.0,0
12.0,-15.0,0.0,0,0.0,626,1,104,1,1,0,0,29,1,0.5,-1.5,1.0,10.0,0
12.0,0.0,6.0,1,0.0,1895,1,105,1,1,0,0,29,1,0.5,6.0,0.0,0.0,1
6.0,-4.5,0.0,1,-4.5,325,1,106,1,1,0,0,29,1,0.5,0.75,1.0,0.0,0
8.0,-13.0,0.0,0,0.0,397,1,107,1,1,0,0,29,1,0.5,-2.5,1.0,-4.5,0
10.0,-16.25,0.0,0,0.0,346,1,108,1,1,0,0,29,1,0.5,-3.125,0.0,0.0,1
5.0,-1.25,0.0,1,5.0,400,1,109,1,1,0,0,29,1,0.5,1.875,0.0,0.0,2
4.0,-4.0,0.0,1,4.0,502,1,110,1,1,0,0,29,1,0.5,0.0,1.0,5.0,0
5.0,-3.13,0.0,0,0.0,0,1,111,1,0,0,0,29,1,0.5,0.935,1.0,4.0,0
6.0,-9.0,0.0,0,0.0,768,1,112,1,0,0,0,29,1,0.5,-1.5,0.0,0.0,1
12.0,-19.5,0.0,0,0.0,540,1,113,1,0,0,0,29,1,0.5,-3.75,0.0,0.0,2
10.0,-12.5,0.0,0,0.0,409,1,114,1,0,0,0,29,1,0.5,-1.25,0.0,0.0,3
2.0,-3.0,0.0,0,0.0,688,1,115,1,0,0,0,29,1,0.5,-0.5,0.0,0.0,4
8.0,-16.0,0.0,0,0.0,629,1,116,1,0,0,0,29,1,0.5,-4.0,0.0,0.0,5
4.0,0.0,2.0,1,4.0,516,1,117,1,0,0,0,29,1,0.5,2.0,0.0,0.0,6
12.0,-7.5,0.0,1,-7.5,1248,1,118,1,0,0,0,29,1,0.5,2.25,1.0,4.0,0
12.0,-13.5,0.0,0,0.0,721,1,119,1,0,0,0,29,1,0.5,-0.75,1.0,-7.5,0
22.0,0.0,10.0,1,22.0,460,1,120,1,0,0,0,29,1,0.5,11.0,0.0,0.0,1
5.0,-3.75,0.0,1,5.0,358,1,121,1,1,0,0,29,1,0.5,0.625,1.0,22.0,0
6.0,-8.25,0.0,0,0.0,583,1,122,1,1,0,0,29,1,0.5,-1.125,1.0,5.0,0
8.0,-15.0,0.0,0,0.0,381,1,123,1,1,0,0,29,1,0.5,-3.5,0.0,0.0,1
8.0,-8.0,0.0,1,-8.0,354,1,124,1,1,0,0,29,1,0.5,0.0,0.0,0.0,2
2.0,-2.75,0.0,1,-2.75,338,1,125,1,1,0,0,29,1,0.5,-0.375,1.0,-8.0,0
6.0,-12.0,0.0,0,0.0,372,1,126,1,1,0,0,29,1,0.5,-3.0,1.0,-2.75,0
2.0,0.0,1.0,1,2.0,384,1,127,1,1,0,0,29,1,0.5,1.0,0.0,0.0,1
2.0,-1.25,0.0,1,-1.25,308,1,128,1,1,0,0,29,1,0.5,0.375,1.0,2.0,0
9.0,-18.0,0.0,0,0.0,362,1,129,1,1,0,0,29,1,0.5,-4.5,1.0,-1.25,0
6.0,-9.0,0.0,1,-9.0,1374,1,130,1,1,0,0,29,1,0.5,-1.5,0.0,0.0,1
10.0,-8.75,0.0,1,-8.75,436,1,131,1,1,0,0,29,1,0.5,0.625,1.0,-9.0,0
4.0,-7.5,0.0,0,0.0,444,1,132,1,1,0,0,29,1,0.5,-1.75,1.0,-8.75,0
13.0,0.0,6.0,1,0.0,305,1,133,1,1,0,0,29,1,0.5,6.5,0.0,0.0,1
10.0,-11.25,0.0,0,0.0,306,1,134,1,1,0,0,29,1,0.5,-0.625,1.0,0.0,0
4.0,-3.0,0.0,1,4.0,363,1,135,1,1,0,0,29,1,0.5,0.5,0.0,0.0,1
10.0,-5.0,0.0,1,10.0,880,1,136,1,1,0,0,29,1,0.5,2.5,1.0,4.0,0
8.0,-2.0,0.0,1,-2.0,418,1,137,1,1,0,0,29,1,0.5,3.0,1.0,10.0,0
4.0,-2.5,0.0,0,0.0,797,1,138,1,1,0,0,29,1,0.5,0.75,1.0,-2.0,0
2.0,-3.5,0.0,0,0.0,474,1,139,1,1,0,0,29,1,0.5,-0.75,0.0,0.0,1
2.0,-2.5,0.0,1,2.0,1011,1,140,1,1,0,0,29,1,0.5,-0.25,0.0,0.0,2
12.0,-21.0,0.0,0,0.0,522,1,141,1,0,0,0,29,1,0.5,-4.5,1.0,2.0,0
7.0,0.0,3.0,1,7.0,536,1,142,1,0,0,0,29,1,0.5,3.5,0.0,0.0,1
10.0,-8.75,0.0,0,0.0,561,1,143,1,0,0,0,29,1,0.5,0.625,1.0,7.0,0
2.0,-1.25,0.0,0,0.0,693,1,144,1,0,0,0,29,1,0.5,0.375,0.0,0.0,1
9.0,-6.75,0.0,0,0.0,643,1,145,1,0,0,0,29,1,0.5,1.125,0.0,0.0,2
12.0,0.0,6.0,1,12.0,535,1,146,1,0,0,0,29,1,0.5,6.0,0.0,0.0,3
28.0,0.0,13.0,1,28.0,525,1,147,1,0,0,0,29,1,0.5,14.0,1.0,12.0,0
9.0,-10.13,0.0,0,0.0,570,1,148,1,0,0,0,29,1,0.5,-0.5650000000000004,1.0,28.0,0
2.0,-0.5,0.0,1,2.0,510,1,149,1,0,0,0,29,1,0.5,0.75,0.0,0.0,1
25.0,0.0,9.0,1,25.0,383,1,150,1,0,0,0,29,1,0.5,12.5,1.0,2.0,0
6.0,-3.75,0.0,0,0.0,488,1,151,1,1,0,0,29,1,0.5,1.125,1.0,25.0,0
8.0,-3.0,0.0,1,8.0,563,1,152,1,1,0,0,29,1,0.5,2.5,0.0,0.0,1
2.0,-3.25,0.0,0,0.0,463,1,153,1,1,0,0,29,1,0.5,-0.625,1.0,8.0,0
8.0,-9.0,0.0,0,0.0,370,1,154,1,1,0,0,29,1,0.5,-0.5,0.0,0.0,1
6.0,-6.0,0.0,0,0.0,366,1,155,1,1,0,0,29,1,0.5,0.0,0.0,0.0,2
8.0,-11.0,0.0,0,0.0,311,1,156,1,1,0,0,29,1,0.5,-1.5,0.0,0.0,3
5.0,-8.75,0.0,0,0.0,875,1,157,1,1,0,0,29,1,0.5,-1.875,0.0,0.0,4
6.0,-9.75,0.0,0,0.0,1044,1,158,1,1,0,0,29,1,0.5,-1.875,0.0,0.0,5
12.0,-24.0,0.0,0,0.0,621,1,159,1,1,0,0,29,1,0.5,-6.0,0.0,0.0,6
4.0,-6.5,0.0,0,0.0,345,1,160,1,1,0,0,29,1,0.5,-1.25,0.0,0.0,7
5.0,-10.0,0.0,0,0.0,341,1,161,1,1,0,0,29,1,0.5,-2.5,0.0,0.0,8
30.0,0.0,12.0,1,0.0,499,1,162,1,1,0,0,29,1,0.5,15.0,0.0,0.0,9
12.0,-18.0,0.0,0,0.0,422,1,163,1,1,0,0,29,1,0.5,-3.0,1.0,0.0,0
9.0,-9.0,0.0,0,0.0,406,1,164,1,1,0,0,29,1,0.5,0.0,0.0,0.0,1
5.0,-5.0,0.0,1,-5.0,386,1,165,1,1,0,0,29,1,0.5,0.0,0.0,0.0,2
5.0,-9.38,0.0,0,0.0,421,1,166,1,1,0,0,29,1,0.5,-2.1900000000000004,1.0,-5.0,0
10.0,-12.5,0.0,0,0.0,1465,1,167,1,1,0,0,29,1,0.5,-1.25,0.0,0.0,1
10.0,-18.75,0.0,0,0.0,267,1,168,1,1,0,0,29,1,0.5,-4.375,0.0,0.0,2
5.0,-2.5,0.0,1,-2.5,689,1,169,1,1,0,0,29,1,0.5,1.25,0.0,0.0,3
9.0,-14.63,0.0,0,0.0,756,1,170,1,1,0,0,29,1,0.5,-2.8150000000000004,1.0,-2.5,0
6.0,-7.5,0.0,0,0.0,612,1,171,1,0,0,0,29,1,0.5,-0.75,0.0,0.0,1
4.0,-3.0,0.0,0,0.0,467,1,172,1,0,0,0,29,1,0.5,0.5,0.0,0.0,2
10.0,-3.75,0.0,1,10.0,559,1,173,1,0,0,0,29,1,0.5,3.125,0.0,0.0,3
12.0,-4.5,0.0,1,-4.5,597,1,174,1,0,0,0,29,1,0.5,3.75,1.0,10.0,0
12.0,-15.0,0.0,0,0.0,495,1,175,1,0,0,0,29,1,0.5,-1.5,1.0,-4.5,0
6.0,-3.0,0.0,0,0.0,302,1,176,1,0,0,0,29,1,0.5,1.5,0.0,0.0,1
9.0,-14.63,0.0,0,0.0,337,1,177,1,0,0,0,29,1,0.5,-2.8150000000000004,0.0,0.0,2
5.0,-1.25,0.0,1,-1.25,390,1,178,1,0,0,0,29,1,0.5,1.875,0.0,0.0,3
8.0,-11.0,0.0,0,0.0,616,1,179,1,0,0,0,29,1,0.5,-1.5,1.0,-1.25,0
10.0,-17.5,0.0,0,0.0,348,1,180,1,0,0,0,29,1,0.5,-3.75,0.0,0.0,1
28.0,0.0,13.0,1,0.0,470,1,181,1,1,0,0,29,1,0.5,14.0,0.0,0.0,2
5.0,-6.88,0.0,0,0.0,369,1,182,1,1,0,0,29,1,0.5,-0.94,1.0,0.0,0
4.0,-3.5,0.0,0,0.0,486,1,183,1,1,0,0,29,1,0.5,0.25,0.0,0.0,1
12.0,-16.5,0.0,0,0.0,490,1,184,1,1,0,0,29,1,0.5,-2.25,0.0,0.0,2
5.0,-8.13,0.0,0,0.0,986,1,185,1,1,0,0,29,1,0.5,-1.5650000000000004,0.0,0.0,3
9.0,-16.88,0.0,0,0.0,528,1,186,1,1,0,0,29,1,0.5,-3.939999999999999,0.0,0.0,4
9.0,-3.38,0.0,1,-3.38,626,1,187,1,1,0,0,29,1,0.5,2.81,0.0,0.0,5
12.0,0.0,5.0,1,0.0,465,1,188,1,1,0,0,29,1,0.5,6.0,1.0,-3.38,0
4.0,-8.0,0.0,0,0.0,310,1,189,1,1,0,0,29,1,0.5,-2.0,1.0,0.0,0
8.0,-12.0,0.0,0,0.0,370,1,190,1,1,0,0,29,1,0.5,-2.0,0.0,0.0,1
8.0,-10.0,0.0,0,0.0,483,1,191,1,0,0,0,29,1,0.5,-1.0,0.0,0.0,2
9.0,-9.0,0.0,0,0.0,1693,1,192,1,0,0,0,29,1,0.5,0.0,0.0,0.0,3
10.0,-11.25,0.0,0,0.0,889,1,193,1,0,0,0,29,1,0.5,-0.625,0.0,0.0,4
12.0,-12.0,0.0,0,0.0,1762,1,194,1,0,0,0,29,1,0.5,0.0,0.0,0.0,5
8.0,-14.0,0.0,0,0.0,537,1,195,1,0,0,0,29,1,0.5,-3.0,0.0,0.0,6
12.0,-16.5,0.0,1,-16.5,717,1,196,1,0,0,0,29,1,0.5,-2.25,0.0,0.0,7
4.0,-7.0,0.0,1,-7.0,393,1,197,1,0,0,0,29,1,0.5,-1.5,1.0,-16.5,0
4.0,-1.0,0.0,1,-1.0,284,1,198,1,0,0,0,29,1,0.5,1.5,1.0,-7.0,0
5.0,-1.88,0.0,1,5.0,276,1,199,1,0,0,0,29,1,0.5,1.56,1.0,-1.0,0
8.0,0.0,3.0,1,0.0,369,1,200,1,0,0,0,29,1,0.5,4.0,1.0,5.0,0
8.0,-4.0,0.0,0,0.0,1655,1,201,1,1,0,0,29,1,0.5,2.0,1.0,0.0,0
2.0,-4.0,0.0,0,0.0,407,1,202,1,1,0,0,29,1,0.5,-1.0,0.0,0.0,1
12.0,-9.0,0.0,1,-9.0,351,1,203,1,1,0,0,29,1,0.5,1.5,0.0,0.0,2
4.0,-1.5,0.0,1,4.0,375,1,204,1,1,0,0,29,1,0.5,1.25,1.0,-9.0,0
6.0,-10.5,0.0,0,0.0,786,1,205,1,1,0,0,29,1,0.5,-2.25,1.0,4.0,0
5.0,-3.13,0.0,1,5.0,1029,1,206,1,1,0,0,29,1,0.5,0.935,0.0,0.0,1
10.0,-15.0,0.0,0,0.0,611,1,207,1,1,0,0,29,1,0.5,-2.5,1.0,5.0,0
23.0,0.0,10.0,0,10.0,659,1,208,1,1,0,0,29,1,0.5,11.5,0.0,0.0,1
12.0,-7.5,0.0,1,-7.5,493,1,209,1,1,0,0,29,1,0.5,2.25,0.0,10.0,2
2.0,-0.5,0.0,1,-0.5,394,1,210,1,1,0,0,29,1,0.5,0.75,1.0,-7.5,0
4.0,0.0,2.0,0,2.0,817,1,211,1,1,0,0,29,1,0.5,2.0,1.0,-0.5,0
6.0,-1.5,0.0,1,-1.5,449,1,212,1,1,0,0,29,1,0.5,2.25,0.0,2.0,1
4.0,-1.0,0.0,1,4.0,398,1,213,1,1,0,0,29,1,0.5,1.5,1.0,-1.5,0
10.0,-20.0,0.0,0,0.0,599,1,214,1,1,0,0,29,1,0.5,-5.0,1.0,4.0,0
12.0,-22.5,0.0,0,0.0,567,1,215,1,1,0,0,29,1,0.5,-5.25,0.0,0.0,1
25.0,0.0,9.0,1,0.0,1048,1,216,1,1,0,0,29,1,0.5,12.5,0.0,0.0,2
13.0,0.0,5.0,0,5.0,1086,1,217,1,1,0,0,29,1,0.5,6.5,1.0,0.0,0
6.0,-5.25,0.0,0,0.0,629,1,218,1,1,0,0,29,1,0.5,0.375,0.0,5.0,1
9.0,-13.5,0.0,0,0.0,553,1,219,1,1,0,0,29,1,0.5,-2.25,0.0,0.0,2
5.0,0.0,2.0,0,2.0,549,1,220,1,1,0,0,29,1,0.5,2.5,0.0,0.0,3
2.0,-3.25,0.0,0,0.0,447,1,221,1,0,0,0,29,1,0.5,-0.625,0.0,2.0,4
5.0,-5.0,0.0,0,0.0,414,1,222,1,0,0,0,29,1,0.5,0.0,0.0,0.0,5
26.0,0.0,10.0,1,0.0,402,1,223,1,0,0,0,29,1,0.5,13.0,0.0,0.0,6
12.0,-10.5,0.0,0,0.0,1180,1,224,1,0,0,0,29,1,0.5,0.75,1.0,0.0,0
2.0,0.0,1.0,1,0.0,1361,1,225,1,0,0,0,29,1,0.5,1.0,0.0,0.0,1
6.0,-9.75,0.0,0,0.0,553,1,226,1,0,0,0,29,1,0.5,-1.875,1.0,0.0,0
8.0,-3.0,0.0,1,8.0,795,1,227,1,0,0,0,29,1,0.5,2.5,0.0,0.0,1
13.0,0.0,5.0,1,13.0,287,1,228,1,0,0,0,29,1,0.5,6.5,1.0,8.0,0
10.0,-7.5,0.0,0,0.0,384,1,229,1,0,0,0,29,1,0.5,1.25,1.0,13.0,0
8.0,-13.0,0.0,0,0.0,590,1,230,1,0,0,0,29,1,0.5,-2.5,0.0,0.0,1
12.0,-6.0,0.0,1,-6.0,421,1,231,1,1,0,0,29,1,0.5,3.0,0.0,0.0,2
5.0,-6.25,0.0,0,0.0,396,1,232,1,1,0,0,29,1,0.5,-0.625,1.0,-6.0,0
10.0,-3.75,0.0,1,10.0,353,1,233,1,1,0,0,29,1,0.5,3.125,0.0,0.0,1
9.0,-7.88,0.0,0,0.0,359,1,234,1,1,0,0,29,1,0.5,0.56,1.0,10.0,0
8.0,-6.0,0.0,0,0.0,1644,1,235,1,1,0,0,29,1,0.5,1.0,0.0,0.0,1
4.0,-5.5,0.0,0,0.0,488,1,236,1,1,0,0,29,1,0.5,-0.75,0.0,0.0,2
19.0,0.0,8.0,0,8.0,551,1,237,1,1,0,0,29,1,0.5,9.5,0.0,0.0,3
10.0,-7.5,0.0,0,0.0,410,1,238,1,1,0,0,29,1,0.5,1.25,0.0,8.0,4
4.0,-6.0,0.0,0,0.0,305,1,239,1,1,0,0,29,1,0.5,-1.0,0.0,0.0,5
8.0,-14.0,0.0,0,0.0,0,1,240,1,1,0,0,29,1,0.5,-3.0,0.0,0.0,6
9.0,-3.38,0.0,1,-3.38,600,1,241,1,0,0,0,29,1,0.5,2.81,0.0,0.0,7
8.0,-15.0,0.0,0,0.0,0,1,242,1,0,0,0,29,1,0.5,-3.5,1.0,-3.38,0
30.0,0.0,12.0,1,0.0,523,1,243,1,0,0,0,29,1,0.5,15.0,0.0,0.0,1
8.0,-8.0,0.0,0,0.0,367,1,244,1,0,0,0,29,1,0.5,0.0,1.0,0.0,0
8.0,-5.0,0.0,0,0.0,1041,1,245,1,0,0,0,29,1,0.5,1.5,0.0,0.0,1
12.0,-18.0,0.0,0,0.0,374,1,246,1,0,0,0,29,1,0.5,-3.0,0.0,0.0,2
10.0,-5.0,0.0,1,-5.0,372,1,247,1,0,0,0,29,1,0.5,2.5,0.0,0.0,3
9.0,-11.25,0.0,0,0.0,442,1,248,1,0,0,0,29,1,0.5,-1.125,1.0,-5.0,0
9.0,-7.88,0.0,0,0.0,374,1,249,1,0,0,0,29,1,0.5,0.56,0.0,0.0,1
8.0,-6.0,0.0,1,-6.0,533,1,250,1,0,0,0,29,1,0.5,1.0,0.0,0.0,2
8.0,0.0,3.0,0,3.0,267,1,251,1,1,0,0,29,1,0.5,4.0,1.0,-6.0,0
12.0,-21.0,0.0,0,0.0,348,1,252,1,1,0,0,29,1,0.5,-4.5,0.0,3.0,1
4.0,-2.0,0.0,0,0.0,694,1,253,1,1,0,0,29,1,0.5,1.0,0.0,0.0,2
4.0,-5.0,0.0,0,0.0,1038,1,254,1,1,0,0,29,1,0.5,-0.5,0.0,0.0,3
6.0,-7.5,0.0,0,0.0,0,1,255,1,1,0,0,29,1,0.5,-0.75,0.0,0.0,4
12.0,-12.0,0.0,0,0.0,346,1,256,1,1,0,0,29,1,0.5,0.0,0.0,0.0,5
8.0,-5.0,0.0,1,-5.0,1565,1,257,1,1,0,0,29,1,0.5,1.5,0.0,0.0,6
26.0,0.0,12.0,1,0.0,338,1,258,1,1,0,0,29,1,0.5,13.0,1.0,-5.0,0
8.0,-10.0,0.0,0,0.0,767,1,259,1,1,0,0,29,1,0.5,-1.0,1.0,0.0,0
5.0,-5.63,0.0,0,0.0,702,1,260,1,1,0,0,29,1,0.5,-0.3149999999999999,0.0,0.0,1
6.0,-4.5,0.0,0,0.0,912,1,261,1,0,0,0,29,1,0.5,0.75,0.0,0.0,2
8.0,-9.0,0.0,0,0.0,581,1,262,1,0,0,0,29,1,0.5,-0.5,0.0,0.0,3
4.0,-5.5,0.0,0,0.0,398,1,263,1,0,0,0,29,1,0.5,-0.75,0.0,0.0,4
4.0,-5.0,0.0,0,0.0,96,1,264,1,0,0,0,29,1,0.5,-0.5,0.0,0.0,5
9.0,-2.25,0.0,1,-2.25,473,1,265,1,0,0,0,29,1,0.5,3.375,0.0,0.0,6
23.0,0.0,10.0,1,0.0,344,1,266,1,0,0,0,29,1,0.5,11.5,1.0,-2.25,0
9.0,-5.63,0.0,1,-5.63,262,1,267,1,0,0,0,29,1,0.5,1.685,1.0,0.0,0
4.0,-4.5,0.0,0,0.0,0,1,268,1,0,0,0,29,1,0.5,-0.25,1.0,-5.63,0
4.0,-8.0,0.0,0,0.0,369,1,269,1,0,0,0,29,1,0.5,-2.0,0.0,0.0,1
19.0,0.0,8.0,1,19.0,1132,1,270,1,0,0,0,29,1,0.5,9.5,0.0,0.0,2
2.0,-2.0,0.0,0,0.0,625,1,271,1,0,0,0,29,1,0.5,0.0,1.0,19.0,0
5.0,-8.13,0.0,0,0.0,372,1,272,1,0,0,0,29,1,0.5,-1.5650000000000004,0.0,0.0,1
5.0,-4.38,0.0,0,0.0,950,1,273,1,0,0,0,29,1,0.5,0.31,0.0,0.0,2
2.0,-2.25,0.0,0,0.0,467,1,274,1,0,0,0,29,1,0.5,-0.125,0.0,0.0,3
2.0,-0.75,0.0,1,-0.75,344,1,275,1,0,0,0,29,1,0.5,0.625,0.0,0.0,4
2.0,-2.75,0.0,0,0.0,320,1,276,1,0,0,0,29,1,0.5,-0.375,1.0,-0.75,0
5.0,-8.75,0.0,0,0.0,436,1,277,1,0,0,0,29,1,0.5,-1.875,0.0,0.0,1
9.0,-18.0,0.0,0,0.0,406,1,278,1,0,0,0,29,1,0.5,-4.5,0.0,0.0,2
4.0,-3.5,0.0,0,0.0,912,1,279,1,0,0,0,29,1,0.5,0.25,0.0,0.0,3
4.0,-2.5,0.0,0,0.0,0,1,280,1,0,0,0,29,1,0.5,0.75,0.0,0.0,4
9.0,-6.75,0.0,1,-6.75,560,1,1,1,0,0,0,30,2,0.5,1.125,,,0
6.0,-6.75,0.0,0,0.0,776,1,2,1,0,0,0,30,2,0.5,-0.375,1.0,-6.75,0
6.0,-3.0,0.0,1,6.0,662,1,3,1,0,0,0,30,2,0.5,1.5,0.0,0.0,1
2.0,-1.5,0.0,0,0.0,556,1,4,1,0,0,0,30,2,0.5,0.25,1.0,6.0,0
4.0,-3.0,0.0,0,0.0,545,1,5,1,0,0,0,30,2,0.5,0.5,0.0,0.0,1
5.0,-6.88,0.0,0,0.0,1299,1,6,1,0,0,0,30,2,0.5,-0.94,0.0,0.0,2
12.0,-9.0,0.0,1,12.0,652,1,7,1,0,0,0,30,2,0.5,1.5,0.0,0.0,3
4.0,-5.0,0.0,0,0.0,687,1,8,1,0,0,0,30,2,0.5,-0.5,1.0,12.0,0
5.0,-7.5,0.0,0,0.0,674,1,9,1,0,0,0,30,2,0.5,-1.25,0.0,0.0,1
4.0,-4.0,0.0,1,-4.0,480,1,10,1,0,0,0,30,2,0.5,0.0,0.0,0.0,2
2.0,-1.0,0.0,1,2.0,295,1,11,1,1,0,0,30,2,0.5,0.5,1.0,-4.0,0
9.0,-6.75,0.0,1,-6.75,402,1,12,1,1,0,0,30,2,0.5,1.125,1.0,2.0,0
2.0,-4.0,0.0,0,0.0,359,1,13,1,1,0,0,30,2,0.5,-1.0,1.0,-6.75,0
2.0,-3.25,0.0,0,0.0,364,1,14,1,1,0,0,30,2,0.5,-0.625,0.0,0.0,1
4.0,-6.5,0.0,1,-6.5,254,1,15,1,1,0,0,30,2,0.5,-1.25,0.0,0.0,2
5.0,-5.63,0.0,0,0.0,325,1,16,1,1,0,0,30,2,0.5,-0.3149999999999999,1.0,-6.5,0
8.0,-8.0,0.0,1,-8.0,419,1,17,1,1,0,0,30,2,0.5,0.0,0.0,0.0,1
12.0,-18.0,0.0,1,12.0,495,1,18,1,1,0,0,30,2,0.5,-3.0,1.0,-8.0,0
2.0,-2.5,0.0,0,0.0,266,1,19,1,1,0,0,30,2,0.5,-0.25,1.0,12.0,0
3.0,0.0,1.0,1,3.0,257,1,20,1,1,0,0,30,2,0.5,1.5,0.0,0.0,1
9.0,-5.63,0.0,1,-5.63,385,1,21,1,0,0,0,30,2,0.5,1.685,1.0,3.0,0
9.0,-14.63,0.0,0,0.0,576,1,22,1,0,0,0,30,2,0.5,-2.8150000000000004,1.0,-5.63,0
5.0,-9.38,0.0,0,0.0,360,1,23,1,0,0,0,30,2,0.5,-2.1900000000000004,0.0,0.0,1
6.0,-4.5,0.0,1,6.0,446,1,24,1,0,0,0,30,2,0.5,0.75,0.0,0.0,2
8.0,-7.0,0.0,0,0.0,338,1,25,1,0,0,0,30,2,0.5,0.5,1.0,6.0,0
10.0,-16.25,0.0,0,0.0,407,1,26,1,0,0,0,30,2,0.5,-3.125,0.0,0.0,1
10.0,-17.5,0.0,0,0.0,803,1,27,1,0,0,0,30,2,0.5,-3.75,0.0,0.0,2
9.0,-16.88,0.0,0,0.0,946,1,28,1,0,0,0,30,2,0.5,-3.939999999999999,0.0,0.0,3
8.0,-5.0,0.0,1,8.0,638,1,29,1,0,0,0,30,2,0.5,1.5,0.0,0.0,4
6.0,-1.5,0.0,1,6.0,350,1,30,1,0,0,0,30,2,0.5,2.25,1.0,8.0,0
12.0,-18.0,0.0,0,0.0,382,1,31,1,0,0,0,30,2,0.5,-3.0,1.0,6.0,0
5.0,-6.25,0.0,0,0.0,291,1,32,1,0,0,0,30,2,0.5,-0.625,0.0,0.0,1
8.0,-4.0,0.0,1,8.0,1996,1,33,1,0,0,0,30,2,0.5,2.0,0.0,0.0,2
9.0,-15.75,0.0,0,0.0,454,1,34,1,0,0,0,30,2,0.5,-3.375,1.0,8.0,0
9.0,-13.5,0.0,0,0.0,339,1,35,1,0,0,0,30,2,0.5,-2.25,0.0,0.0,1
5.0,-8.13,0.0,0,0.0,895,1,36,1,0,0,0,30,2,0.5,-1.5650000000000004,0.0,0.0,2
2.0,0.0,1.0,1,0.0,339,1,37,1,0,0,0,30,2,0.5,1.0,0.0,0.0,3
2.0,-3.75,0.0,0,0.0,402,1,38,1,0,0,0,30,2,0.5,-0.875,1.0,0.0,0
4.0,-6.5,0.0,0,0.0,271,1,39,1,0,0,0,30,2,0.5,-1.25,0.0,0.0,1
10.0,-5.0,0.0,1,-5.0,324,1,40,1,0,0,0,30,2,0.5,2.5,0.0,0.0,2
12.0,-16.5,0.0,1,12.0,474,1,41,1,1,0,0,30,2,0.5,-2.25,1.0,-5.0,0
10.0,-12.5,0.0,1,-12.5,694,1,42,1,1,0,0,30,2,0.5,-1.25,1.0,12.0,0
5.0,-1.25,0.0,1,5.0,391,1,43,1,1,0,0,30,2,0.5,1.875,1.0,-12.5,0
19.0,0.0,8.0,1,19.0,503,1,44,1,1,0,0,30,2,0.5,9.5,1.0,5.0,0
8.0,-9.0,0.0,0,0.0,404,1,45,1,1,0,0,30,2,0.5,-0.5,1.0,19.0,0
5.0,-10.0,0.0,0,0.0,436,1,46,1,1,0,0,30,2,0.5,-2.5,0.0,0.0,1
25.0,0.0,10.0,1,25.0,575,1,47,1,1,0,0,30,2,0.5,12.5,0.0,0.0,2
7.0,0.0,3.0,0,3.0,476,1,48,1,1,0,0,30,2,0.5,3.5,1.0,25.0,0
6.0,-11.25,0.0,0,0.0,463,1,49,1,1,0,0,30,2,0.5,-2.625,0.0,3.0,1
6.0,-1.5,0.0,1,-1.5,496,1,50,1,1,0,0,30,2,0.5,2.25,0.0,0.0,2
4.0,-1.5,0.0,1,4.0,389,1,51,1,1,0,0,30,2,0.5,1.25,1.0,-1.5,0
10.0,-5.0,0.0,1,10.0,489,1,52,1,1,0,0,30,2,0.5,2.5,1.0,4.0,0
10.0,-3.75,0.0,1,10.0,510,1,53,1,1,0,0,30,2,0.5,3.125,1.0,10.0,0
6.0,-4.5,0.0,0,0.0,482,1,54,1,1,0,0,30,2,0.5,0.75,1.0,10.0,0
12.0,-19.5,0.0,0,0.0,969,1,55,1,1,0,0,30,2,0.5,-3.75,0.0,0.0,1
5.0,-4.38,0.0,0,0.0,392,1,56,1,1,0,0,30,2,0.5,0.31,0.0,0.0,2
8.0,-11.0,0.0,0,0.0,425,1,57,1,1,0,0,30,2,0.5,-1.5,0.0,0.0,3
2.0,-0.75,0.0,1,2.0,246,1,58,1,1,0,0,30,2,0.5,0.625,0.0,0.0,4
2.0,-1.5,0.0,0,0.0,317,1,59,1,1,0,0,30,2,0.5,0.25,1.0,2.0,0
6.0,-6.75,0.0,0,0.0,280,1,60,1,1,0,0,30,2,0.5,-0.375,0.0,0.0,1
12.0,-22.5,0.0,0,0.0,516,1,61,1,0,0,0,30,2,0.5,-5.25,0.0,0.0,2
2.0,-1.0,0.0,1,2.0,481,1,62,1,0,0,0,30,2,0.5,0.5,0.0,0.0,3
13.0,0.0,6.0,1,13.0,506,1,63,1,0,0,0,30,2,0.5,6.5,1.0,2.0,0
5.0,-2.5,0.0,0,0.0,497,1,64,1,0,0,0,30,2,0.5,1.25,1.0,13.0,0
2.0,-0.5,0.0,1,2.0,269,1,65,1,0,0,0,30,2,0.5,0.75,0.0,0.0,1
2.0,-3.25,0.0,1,-3.25,475,1,66,1,0,0,0,30,2,0.5,-0.625,1.0,2.0,0
30.0,0.0,12.0,1,0.0,1438,1,67,1,0,0,0,30,2,0.5,15.0,1.0,-3.25,0
8.0,-8.0,0.0,1,8.0,451,1,68,1,0,0,0,30,2,0.5,0.0,1.0,0.0,0
4.0,-5.5,0.0,0,0.0,449,1,69,1,0,0,0,30,2,0.5,-0.75,1.0,8.0,0
23.0,0.0,10.0,1,0.0,881,1,70,1,0,0,0,30,2,0.5,11.5,0.0,0.0,1
4.0,-3.5,0.0,0,0.0,295,1,71,1,0,0,0,30,2,0.5,0.25,1.0,0.0,0
5.0,0.0,2.0,1,5.0,306,1,72,1,0,0,0,30,2,0.5,2.5,0.0,0.0,1
8.0,0.0,3.0,1,0.0,497,1,73,1,0,0,0,30,2,0.5,4.0,1.0,5.0,0
9.0,-10.13,0.0,0,0.0,359,1,74,1,0,0,0,30,2,0.5,-0.5650000000000004,1.0,0.0,0
8.0,-16.0,0.0,0,0.0,381,1,75,1,0,0,0,30,2,0.5,-4.0,0.0,0.0,1
12.0,-24.0,0.0,0,0.0,534,1,76,1,0,0,0,30,2,0.5,-6.0,0.0,0.0,2
9.0,-3.38,0.0,1,-3.38,326,1,77,1,0,0,0,30,2,0.5,2.81,0.0,0.0,3
6.0,-5.25,0.0,1,6.0,379,1,78,1,0,0,0,30,2,0.5,0.375,1.0,-3.38,0
2.0,-4.0,0.0,0,0.0,418,1,79,1,0,0,0,30,2,0.5,-1.0,1.0,6.0,0
4.0,-1.0,0.0,1,-1.0,334,1,80,1,0,0,0,30,2,0.5,1.5,0.0,0.0,1
4.0,-6.0,0.0,0,0.0,464,1,81,1,1,0,0,30,2,0.5,-1.0,1.0,-1.0,0
10.0,-16.25,0.0,1,-16.25,481,1,82,1,1,0,0,30,2,0.5,-3.125,0.0,0.0,1
12.0,-15.0,0.0,1,-15.0,488,1,83,1,1,0,0,30,2,0.5,-1.5,1.0,-16.25,0
6.0,-5.25,0.0,1,6.0,566,1,84,1,1,0,0,30,2,0.5,0.375,1.0,-15.0,0
12.0,-21.0,0.0,1,12.0,1378,1,85,1,1,0,0,30,2,0.5,-4.5,1.0,6.0,0
4.0,-3.0,0.0,1,4.0,833,1,86,1,1,0,0,30,2,0.5,0.5,1.0,12.0,0
12.0,-22.5,0.0,1,12.0,1766,1,87,1,1,0,0,30,2,0.5,-5.25,1.0,4.0,0
2.0,-3.75,0.0,0,0.0,625,1,88,1,1,0,0,30,2,0.5,-0.875,1.0,12.0,0
6.0,-12.0,0.0,1,-12.0,563,1,89,1,1,0,0,30,2,0.5,-3.0,0.0,0.0,1
5.0,-8.13,0.0,1,5.0,666,1,90,1,1,0,0,30,2,0.5,-1.5650000000000004,1.0,-12.0,0
6.0,-11.25,0.0,0,0.0,454,1,91,1,0,0,0,30,2,0.5,-2.625,1.0,5.0,0
5.0,-4.38,0.0,1,-4.38,1066,1,92,1,0,0,0,30,2,0.5,0.31,0.0,0.0,1
6.0,-2.25,0.0,1,6.0,499,1,93,1,0,0,0,30,2,0.5,1.875,1.0,-4.38,0
12.0,-10.5,0.0,1,12.0,576,1,94,1,0,0,0,30,2,0.5,0.75,1.0,6.0,0
9.0,-18.0,0.0,0,0.0,642,1,95,1,0,0,0,30,2,0.5,-4.5,1.0,12.0,0
10.0,-20.0,0.0,0,0.0,488,1,96,1,0,0,0,30,2,0.5,-5.0,0.0,0.0,1
4.0,-4.5,0.0,0,0.0,400,1,97,1,0,0,0,30,2,0.5,-0.25,0.0,0.0,2
9.0,-2.25,0.0,1,-2.25,583,1,98,1,0,0,0,30,2,0.5,3.375,0.0,0.0,3
4.0,-6.0,0.0,0,0.0,473,1,99,1,0,0,0,30,2,0.5,-1.0,1.0,-2.25,0
8.0,-10.0,0.0,1,-10.0,470,1,100,1,0,0,0,30,2,0.5,-1.0,0.0,0.0,1
10.0,-8.75,0.0,1,-8.75,478,1,101,1,1,0,0,30,2,0.5,0.625,1.0,-10.0,0
12.0,-6.0,0.0,1,-6.0,363,1,102,1,1,0,0,30,2,0.5,3.0,1.0,-8.75,0
5.0,-5.0,0.0,1,-5.0,410,1,103,1,1,0,0,30,2,0.5,0.0,1.0,-6.0,0
22.0,0.0,10.0,1,22.0,583,1,104,1,1,0,0,30,2,0.5,11.0,1.0,-5.0,0
12.0,-13.5,0.0,1,12.0,284,1,105,1,1,0,0,30,2,0.5,-0.75,1.0,22.0,0
8.0,-7.0,0.0,1,8.0,567,1,106,1,1,0,0,30,2,0.5,0.5,1.0,12.0,0
4.0,-3.5,0.0,0,0.0,421,1,107,1,1,0,0,30,2,0.5,0.25,1.0,8.0,0
9.0,-12.38,0.0,1,9.0,423,1,108,1,1,0,0,30,2,0.5,-1.6900000000000004,0.0,0.0,1
10.0,-7.5,0.0,1,-7.5,361,1,109,1,1,0,0,30,2,0.5,1.25,1.0,9.0,0
26.0,0.0,10.0,1,26.0,280,1,110,1,1,0,0,30,2,0.5,13.0,1.0,-7.5,0
5.0,-5.0,0.0,1,-5.0,420,1,111,1,0,0,0,30,2,0.5,0.0,1.0,26.0,0
5.0,-8.75,0.0,0,0.0,269,1,112,1,0,0,0,30,2,0.5,-1.875,1.0,-5.0,0
8.0,-6.0,0.0,1,-6.0,270,1,113,1,0,0,0,30,2,0.5,1.0,0.0,0.0,1
10.0,-13.75,0.0,0,0.0,504,1,114,1,0,0,0,30,2,0.5,-1.875,1.0,-6.0,0
2.0,-2.5,0.0,0,0.0,407,1,115,1,0,0,0,30,2,0.5,-0.25,0.0,0.0,1
8.0,-11.0,0.0,1,-11.0,733,1,116,1,0,0,0,30,2,0.5,-1.5,0.0,0.0,2
4.0,-2.0,0.0,1,4.0,418,1,117,1,0,0,0,30,2,0.5,1.0,1.0,-11.0,0
10.0,-7.5,0.0,1,-7.5,1042,1,118,1,0,0,0,30,2,0.5,1.25,1.0,4.0,0
22.0,0.0,10.0,1,22.0,670,1,119,1,0,0,0,30,2,0.5,11.0,1.0,-7.5,0
25.0,0.0,10.0,1,0.0,429,1,120,1,0,0,0,30,2,0.5,12.5,1.0,22.0,0
12.0,-4.5,0.0,1,-4.5,224,1,121,1,1,0,0,30,2,0.5,3.75,1.0,0.0,0
8.0,-15.0,0.0,0,0.0,277,1,122,1,1,0,0,30,2,0.5,-3.5,1.0,-4.5,0
2.0,-1.75,0.0,0,0.0,247,1,123,1,1,0,0,30,2,0.5,0.125,0.0,0.0,1
12.0,0.0,6.0,1,0.0,233,1,124,1,1,0,0,30,2,0.5,6.0,0.0,0.0,2
9.0,-3.38,0.0,1,-3.38,363,1,125,1,1,0,0,30,2,0.5,2.81,1.0,0.0,0
2.0,-3.0,0.0,0,0.0,270,1,126,1,1,0,0,30,2,0.5,-0.5,1.0,-3.38,0
9.0,-5.63,0.0,0,0.0,342,1,127,1,1,0,0,30,2,0.5,1.685,0.0,0.0,1
2.0,-3.5,0.0,0,0.0,264,1,128,1,1,0,0,30,2,0.5,-0.75,0.0,0.0,2
8.0,-12.0,0.0,0,0.0,358,1,129,1,1,0,0,30,2,0.5,-2.0,0.0,0.0,3
10.0,-18.75,0.0,1,10.0,1253,1,130,1,1,0,0,30,2,0.5,-4.375,0.0,0.0,4
6.0,-9.75,0.0,0,0.0,251,1,131,1,0,0,0,30,2,0.5,-1.875,1.0,10.0,0
12.0,0.0,5.0,1,12.0,307,1,132,1,0,0,0,30,2,0.5,6.0,0.0,0.0,1
4.0,-2.5,0.0,1,-2.5,321,1,133,1,0,0,0,30,2,0.5,0.75,1.0,12.0,0
8.0,-3.0,0.0,1,8.0,833,1,134,1,0,0,0,30,2,0.5,2.5,1.0,-2.5,0
10.0,-11.25,0.0,1,-11.25,493,1,135,1,0,0,0,30,2,0.5,-0.625,1.0,8.0,0
5.0,-10.0,0.0,1,5.0,462,1,136,1,0,0,0,30,2,0.5,-2.5,1.0,-11.25,0
10.0,-15.0,0.0,0,0.0,1817,1,137,1,0,0,0,30,2,0.5,-2.5,1.0,5.0,0
2.0,-3.5,0.0,0,0.0,297,1,138,1,0,0,0,30,2,0.5,-0.75,0.0,0.0,1
12.0,0.0,4.0,1,12.0,353,1,139,1,0,0,0,30,2,0.5,6.0,0.0,0.0,2
13.0,0.0,5.0,0,5.0,308,1,140,1,0,0,0,30,2,0.5,6.5,1.0,12.0,0
4.0,0.0,2.0,1,4.0,259,1,141,1,1,0,0,30,2,0.5,2.0,0.0,5.0,1
2.0,-2.25,0.0,0,0.0,453,1,142,1,1,0,0,30,2,0.5,-0.125,1.0,4.0,0
9.0,-2.25,0.0,1,-2.25,284,1,143,1,1,0,0,30,2,0.5,3.375,0.0,0.0,1
10.0,-13.75,0.0,1,-13.75,546,1,144,1,1,0,0,30,2,0.5,-1.875,1.0,-2.25,0
28.0,0.0,13.0,1,0.0,803,1,145,1,1,0,0,30,2,0.5,14.0,1.0,-13.75,0
4.0,-2.5,0.0,1,4.0,269,1,146,1,1,0,0,30,2,0.5,0.75,1.0,0.0,0
9.0,-15.75,0.0,1,9.0,473,1,147,1,1,0,0,30,2,0.5,-3.375,1.0,4.0,0
10.0,-15.0,0.0,0,0.0,382,1,148,1,1,0,0,30,2,0.5,-2.5,1.0,9.0,0
10.0,-10.0,0.0,1,10.0,253,1,149,1,1,0,0,30,2,0.5,0.0,0.0,0.0,1
9.0,-18.0,0.0,0,0.0,270,1,150,1,1,0,0,30,2,0.5,-4.5,1.0,10.0,0
5.0,-3.75,0.0,1,5.0,251,1,151,1,0,0,0,30,2,0.5,0.625,0.0,0.0,1
26.0,0.0,12.0,0,12.0,285,1,152,1,0,0,0,30,2,0.5,13.0,1.0,5.0,0
5.0,-5.63,0.0,0,0.0,879,1,153,1,0,0,0,30,2,0.5,-0.3149999999999999,0.0,12.0,1
8.0,-2.0,0.0,1,-2.0,230,1,154,1,0,0,0,30,2,0.5,3.0,0.0,0.0,2
2.0,-3.0,0.0,0,0.0,310,1,155,1,0,0,0,30,2,0.5,-0.5,1.0,-2.0,0
6.0,-9.0,0.0,0,0.0,395,1,156,1,0,0,0,30,2,0.5,-1.5,0.0,0.0,1
9.0,-7.88,0.0,0,0.0,359,1,157,1,0,0,0,30,2,0.5,0.56,0.0,0.0,2
8.0,-14.0,0.0,0,0.0,677,1,158,1,0,0,0,30,2,0.5,-3.0,0.0,0.0,3
28.0,0.0,13.0,1,28.0,532,1,159,1,0,0,0,30,2,0.5,14.0,0.0,0.0,4
9.0,-12.38,0.0,0,0.0,551,1,160,1,0,0,0,30,2,0.5,-1.6900000000000004,1.0,28.0,0
12.0,-24.0,0.0,1,-24.0,261,1,161,1,1,0,0,30,2,0.5,-6.0,0.0,0.0,1
13.0,0.0,5.0,1,13.0,280,1,162,1,1,0,0,30,2,0.5,6.5,1.0,-24.0,0
5.0,-1.88,0.0,1,-1.88,373,1,163,1,1,0,0,30,2,0.5,1.56,1.0,13.0,0
4.0,-4.5,0.0,1,4.0,261,1,164,1,1,0,0,30,2,0.5,-0.25,1.0,-1.88,0
9.0,-7.88,0.0,1,9.0,380,1,165,1,1,0,0,30,2,0.5,0.56,1.0,4.0,0
9.0,-9.0,0.0,1,9.0,265,1,166,1,1,0,0,30,2,0.5,0.0,1.0,9.0,0
25.0,0.0,9.0,1,0.0,367,1,167,1,1,0,0,30,2,0.5,12.5,1.0,9.0,0
12.0,-12.0,0.0,1,-12.0,302,1,168,1,1,0,0,30,2,0.5,0.0,1.0,0.0,0
6.0,-2.25,0.0,1,6.0,294,1,169,1,1,0,0,30,2,0.5,1.875,1.0,-12.0,0
8.0,-5.0,0.0,1,-5.0,262,1,170,1,1,0,0,30,2,0.5,1.5,1.0,6.0,0
4.0,-5.5,0.0,1,-5.5,286,1,171,1,1,0,0,30,2,0.5,-0.75,1.0,-5.0,0
2.0,-1.25,0.0,1,-1.25,262,1,172,1,1,0,0,30,2,0.5,0.375,1.0,-5.5,0
9.0,-13.5,0.0,1,-13.5,271,1,173,1,1,0,0,30,2,0.5,-2.25,1.0,-1.25,0
9.0,-4.5,0.0,1,9.0,287,1,174,1,1,0,0,30,2,0.5,2.25,1.0,-13.5,0
10.0,-11.25,0.0,1,10.0,245,1,175,1,1,0,0,30,2,0.5,-0.625,1.0,9.0,0
6.0,-3.0,0.0,1,-3.0,264,1,176,1,1,0,0,30,2,0.5,1.5,1.0,10.0,0
10.0,-2.5,0.0,1,-2.5,277,1,177,1,1,0,0,30,2,0.5,3.75,1.0,-3.0,0
12.0,0.0,4.0,1,12.0,230,1,178,1,1,0,0,30,2,0.5,6.0,1.0,-2.5,0
10.0,-20.0,0.0,1,10.0,311,1,179,1,1,0,0,30,2,0.5,-5.0,1.0,12.0,0
5.0,-3.75,0.0,1,5.0,237,1,180,1,1,0,0,30,2,0.5,0.625,1.0,10.0,0
9.0,-10.13,0.0,1,-10.13,365,1,181,1,1,0,0,30,2,0.5,-0.5650000000000004,1.0,5.0,0
4.0,-7.0,0.0,1,-7.0,289,1,182,1,1,0,0,30,2,0.5,-1.5,1.0,-10.13,0
12.0,-10.5,0.0,1,-10.5,428,1,183,1,1,0,0,30,2,0.5,0.75,1.0,-7.0,0
8.0,-16.0,0.0,1,8.0,333,1,184,1,1,0,0,30,2,0.5,-4.0,1.0,-10.5,0
4.0,-7.5,0.0,0,0.0,377,1,185,1,1,0,0,30,2,0.5,-1.75,1.0,8.0,0
8.0,0.0,3.0,1,8.0,216,1,186,1,1,0,0,30,2,0.5,4.0,0.0,0.0,1
6.0,-10.5,0.0,0,0.0,333,1,187,1,1,0,0,30,2,0.5,-2.25,1.0,8.0,0
6.0,-9.75,0.0,0,0.0,286,1,188,1,1,0,0,30,2,0.5,-1.875,0.0,0.0,1
5.0,-8.75,0.0,0,0.0,286,1,189,1,1,0,0,30,2,0.5,-1.875,0.0,0.0,2
5.0,-2.5,0.0,1,-2.5,244,1,190,1,1,0,0,30,2,0.5,1.25,0.0,0.0,3
8.0,-15.0,0.0,1,-15.0,1062,1,191,1,0,0,0,30,2,0.5,-3.5,1.0,-2.5,0
10.0,-2.5,0.0,1,-2.5,397,1,192,1,0,0,0,30,2,0.5,3.75,1.0,-15.0,0
4.0,0.0,2.0,1,4.0,372,1,193,1,0,0,0,30,2,0.5,2.0,1.0,-2.5,0
12.0,-6.0,0.0,1,-6.0,390,1,194,1,0,0,0,30,2,0.5,3.0,1.0,4.0,0
12.0,-16.5,0.0,1,-16.5,452,1,195,1,0,0,0,30,2,0.5,-2.25,1.0,-6.0,0
4.0,-7.5,0.0,0,0.0,446,1,196,1,0,0,0,30,2,0.5,-1.75,1.0,-16.5,0
10.0,-8.75,0.0,1,-8.75,233,1,197,1,0,0,0,30,2,0.5,0.625,0.0,0.0,1
10.0,-18.75,0.0,1,10.0,342,1,198,1,0,0,0,30,2,0.5,-4.375,1.0,-8.75,0
26.0,0.0,10.0,1,0.0,357,1,199,1,0,0,0,30,2,0.5,13.0,1.0,10.0,0
12.0,-21.0,0.0,1,12.0,367,1,200,1,0,0,0,30,2,0.5,-4.5,1.0,0.0,0
13.0,0.0,6.0,1,0.0,258,1,201,1,1,0,0,30,2,0.5,6.5,1.0,12.0,0
23.0,0.0,10.0,1,0.0,684,1,202,1,1,0,0,30,2,0.5,11.5,1.0,0.0,0
8.0,-4.0,0.0,1,-4.0,583,1,203,1,1,0,0,30,2,0.5,2.0,1.0,0.0,0
9.0,-11.25,0.0,1,9.0,295,1,204,1,1,0,0,30,2,0.5,-1.125,1.0,-4.0,0
5.0,-6.88,0.0,0,0.0,393,1,205,1,1,0,0,30,2,0.5,-0.94,1.0,9.0,0
4.0,-4.0,0.0,1,4.0,216,1,206,1,1,0,0,30,2,0.5,0.0,0.0,0.0,1
10.0,-17.5,0.0,0,0.0,353,1,207,1,1,0,0,30,2,0.5,-3.75,1.0,4.0,0
8.0,-13.0,0.0,0,0.0,401,1,208,1,1,0,0,30,2,0.5,-2.5,0.0,0.0,1
26.0,0.0,12.0,1,0.0,524,1,209,1,1,0,0,30,2,0.5,13.0,0.0,0.0,2
6.0,-8.25,0.0,1,-8.25,275,1,210,1,1,0,0,30,2,0.5,-1.125,1.0,0.0,0
9.0,-14.63,0.0,1,9.0,525,1,211,1,1,0,0,30,2,0.5,-2.8150000000000004,1.0,-8.25,0
8.0,-2.0,0.0,1,-2.0,602,1,212,1,1,0,0,30,2,0.5,3.0,1.0,9.0,0
10.0,-6.25,0.0,1,-6.25,487,1,213,1,1,0,0,30,2,0.5,1.875,1.0,-2.0,0
8.0,-14.0,0.0,0,0.0,613,1,214,1,1,0,0,30,2,0.5,-3.0,1.0,-6.25,0
12.0,0.0,5.0,1,0.0,462,1,215,1,1,0,0,30,2,0.5,6.0,0.0,0.0,1
8.0,-10.0,0.0,0,0.0,602,1,216,1,1,0,0,30,2,0.5,-1.0,1.0,0.0,0
30.0,0.0,12.0,1,0.0,1065,1,217,1,1,0,0,30,2,0.5,15.0,0.0,0.0,1
5.0,-7.5,0.0,0,0.0,484,1,218,1,1,0,0,30,2,0.5,-1.25,1.0,0.0,0
5.0,0.0,2.0,1,0.0,265,1,219,1,1,0,0,30,2,0.5,2.5,0.0,0.0,1
6.0,-3.75,0.0,1,6.0,396,1,220,1,1,0,0,30,2,0.5,1.125,1.0,0.0,0
2.0,-0.75,0.0,1,-0.75,468,1,221,1,0,0,0,30,2,0.5,0.625,1.0,6.0,0
9.0,-9.0,0.0,1,-9.0,347,1,222,1,0,0,0,30,2,0.5,0.0,1.0,-0.75,0
10.0,-6.25,0.0,1,10.0,497,1,223,1,0,0,0,30,2,0.5,1.875,1.0,-9.0,0
8.0,-12.0,0.0,1,-12.0,835,1,224,1,0,0,0,30,2,0.5,-2.0,1.0,10.0,0
3.0,0.0,1.0,1,0.0,549,1,225,1,0,0,0,30,2,0.5,1.5,1.0,-12.0,0
5.0,-1.88,0.0,1,5.0,798,1,226,1,0,0,0,30,2,0.5,1.56,1.0,0.0,0
6.0,-7.5,0.0,1,-7.5,795,1,227,1,0,0,0,30,2,0.5,-0.75,1.0,5.0,0
12.0,-13.5,0.0,1,12.0,618,1,228,1,0,0,0,30,2,0.5,-0.75,1.0,-7.5,0
4.0,-7.0,0.0,0,0.0,515,1,229,1,0,0,0,30,2,0.5,-1.5,1.0,12.0,0
6.0,-8.25,0.0,1,-8.25,1107,1,230,1,0,0,0,30,2,0.5,-1.125,0.0,0.0,1
6.0,-12.0,0.0,0,0.0,662,1,231,1,0,0,0,30,2,0.5,-3.0,1.0,-8.25,0
6.0,-10.5,0.0,0,0.0,1062,1,232,1,0,0,0,30,2,0.5,-2.25,0.0,0.0,1
4.0,-8.0,0.0,0,0.0,1157,1,233,1,0,0,0,30,2,0.5,-2.0,0.0,0.0,2
6.0,-6.0,0.0,1,-6.0,542,1,234,1,0,0,0,30,2,0.5,0.0,0.0,0.0,3
12.0,0.0,6.0,1,12.0,488,1,235,1,0,0,0,30,2,0.5,6.0,1.0,-6.0,0
12.0,-19.5,0.0,1,12.0,497,1,236,1,0,0,0,30,2,0.5,-3.75,1.0,12.0,0
19.0,0.0,8.0,1,19.0,607,1,237,1,0,0,0,30,2,0.5,9.5,1.0,12.0,0
12.0,-15.0,0.0,0,0.0,425,1,238,1,0,0,0,30,2,0.5,-1.5,1.0,19.0,0
2.0,-1.75,0.0,0,0.0,196,1,239,1,0,0,0,30,2,0.5,0.125,0.0,0.0,1
6.0,-3.75,0.0,0,0.0,1095,1,240,1,0,0,0,30,2,0.5,1.125,0.0,0.0,2
2.0,-1.25,0.0,0,0.0,640,1,241,1,0,0,0,30,2,0.5,0.375,0.0,0.0,3
5.0,-1.25,0.0,1,-1.25,248,1,242,1,0,0,0,30,2,0.5,1.875,0.0,0.0,4
4.0,-1.5,0.0,1,4.0,263,1,243,1,0,0,0,30,2,0.5,1.25,1.0,-1.25,0
8.0,-13.0,0.0,0,0.0,299,1,244,1,0,0,0,30,2,0.5,-2.5,1.0,4.0,0
12.0,-7.5,0.0,1,-7.5,328,1,245,1,0,0,0,30,2,0.5,2.25,0.0,0.0,1
12.0,-3.0,0.0,1,-3.0,314,1,246,1,0,0,0,30,2,0.5,4.5,1.0,-7.5,0
2.0,-2.75,0.0,0,0.0,374,1,247,1,0,0,0,30,2,0.5,-0.375,1.0,-3.0,0
7.0,0.0,3.0,1,7.0,220,1,248,1,0,0,0,30,2,0.5,3.5,0.0,0.0,1
25.0,0.0,9.0,1,25.0,251,1,249,1,0,0,0,30,2,0.5,12.5,1.0,7.0,0
2.0,-2.0,0.0,0,0.0,469,1,250,1,0,0,0,30,2,0.5,0.0,1.0,25.0,0
6.0,-6.0,0.0,1,-6.0,244,1,251,1,1,0,0,30,2,0.5,0.0,0.0,0.0,1
4.0,-2.0,0.0,1,-2.0,296,1,252,1,1,0,0,30,2,0.5,1.0,1.0,-6.0,0
12.0,-7.5,0.0,1,-7.5,331,1,253,1,1,0,0,30,2,0.5,2.25,1.0,-2.0,0
5.0,-6.25,0.0,1,5.0,318,1,254,1,1,0,0,30,2,0.5,-0.625,1.0,-7.5,0
4.0,-5.0,0.0,1,4.0,351,1,255,1,1,0,0,30,2,0.5,-0.5,1.0,5.0,0
2.0,-2.75,0.0,1,-2.75,305,1,256,1,1,0,0,30,2,0.5,-0.375,1.0,4.0,0
2.0,-2.0,0.0,1,2.0,301,1,257,1,1,0,0,30,2,0.5,0.0,1.0,-2.75,0
6.0,-9.0,0.0,1,-9.0,245,1,258,1,1,0,0,30,2,0.5,-1.5,1.0,2.0,0
5.0,-3.13,0.0,1,5.0,264,1,259,1,1,0,0,30,2,0.5,0.935,1.0,-9.0,0
12.0,-9.0,0.0,1,-9.0,437,1,260,1,1,0,0,30,2,0.5,1.5,1.0,5.0,0
4.0,-8.0,0.0,1,-8.0,285,1,261,1,1,0,0,30,2,0.5,-2.0,1.0,-9.0,0
4.0,-1.0,0.0,1,4.0,284,1,262,1,1,0,0,30,2,0.5,1.5,1.0,-8.0,0
2.0,0.0,1.0,1,2.0,747,1,263,1,1,0,0,30,2,0.5,1.0,1.0,4.0,0
9.0,-16.88,0.0,1,9.0,768,1,264,1,1,0,0,30,2,0.5,-3.939999999999999,1.0,2.0,0
8.0,-6.0,0.0,1,-6.0,446,1,265,1,1,0,0,30,2,0.5,1.0,1.0,9.0,0
2.0,-0.5,0.0,1,-0.5,286,1,266,1,1,0,0,30,2,0.5,0.75,1.0,-6.0,0
6.0,-7.5,0.0,1,-7.5,363,1,267,1,1,0,0,30,2,0.5,-0.75,1.0,-0.5,0
8.0,-3.0,0.0,1,8.0,347,1,268,1,1,0,0,30,2,0.5,2.5,1.0,-7.5,0
12.0,-3.0,0.0,1,12.0,257,1,269,1,1,0,0,30,2,0.5,4.5,1.0,8.0,0
5.0,-9.38,0.0,1,-9.38,363,1,270,1,1,0,0,30,2,0.5,-2.1900000000000004,1.0,12.0,0
12.0,-4.5,0.0,1,-4.5,275,1,271,1,0,0,0,30,2,0.5,3.75,1.0,-9.38,0
12.0,-12.0,0.0,1,12.0,495,1,272,1,0,0,0,30,2,0.5,0.0,1.0,-4.5,0
5.0,-3.13,0.0,1,5.0,633,1,273,1,0,0,0,30,2,0.5,0.935,1.0,12.0,0
9.0,-11.25,0.0,0,0.0,271,1,274,1,0,0,0,30,2,0.5,-1.125,1.0,5.0,0
8.0,-9.0,0.0,1,-9.0,379,1,275,1,0,0,0,30,2,0.5,-0.5,0.0,0.0,1
2.0,-2.25,0.0,0,0.0,479,1,276,1,0,0,0,30,2,0.5,-0.125,1.0,-9.0,0
9.0,-4.5,0.0,1,-4.5,508,1,277,1,0,0,0,30,2,0.5,2.25,0.0,0.0,1
10.0,-3.75,0.0,1,10.0,672,1,278,1,0,0,0,30,2,0.5,3.125,1.0,-4.5,0
10.0,-10.0,0.0,1,10.0,747,1,279,1,0,0,0,30,2,0.5,0.0,1.0,10.0,0
10.0,-12.5,0.0,0,0.0,679,1,280,1,0,0,0,30,2,0.5,-1.25,1.0,10.0,0
6.0,-9.75,0.0,0,0.0,378,1,1,1,1,0,0,31,3,0.5,-1.875,,,0
12.0,-13.5,0.0,0,0.0,362,1,2,1,1,0,0,31,3,0.5,-0.75,0.0,0.0,1
8.0,-7.0,0.0,1,8.0,369,1,3,1,1,0,0,31,3,0.5,0.5,0.0,0.0,2
10.0,-7.5,0.0,0,0.0,256,1,4,1,1,0,0,31,3,0.5,1.25,1.0,8.0,0
2.0,-2.25,0.0,0,0.0,480,1,5,1,1,0,0,31,3,0.5,-0.125,0.0,0.0,1
6.0,-8.25,0.0,0,0.0,264,1,6,1,1,0,0,31,3,0.5,-1.125,0.0,0.0,2
10.0,-16.25,0.0,0,0.0,319,1,7,1,1,0,0,31,3,0.5,-3.125,0.0,0.0,3
3.0,0.0,1.0,1,3.0,254,1,8,1,1,0,0,31,3,0.5,1.5,0.0,0.0,4
4.0,-3.0,0.0,0,0.0,415,1,9,1,1,0,0,31,3,0.5,0.5,1.0,3.0,0
8.0,-2.0,0.0,1,-2.0,370,1,10,1,1,0,0,31,3,0.5,3.0,0.0,0.0,1
2.0,-2.5,0.0,0,0.0,408,1,11,1,0,0,0,31,3,0.5,-0.25,1.0,-2.0,0
5.0,-5.63,0.0,0,0.0,354,1,12,1,0,0,0,31,3,0.5,-0.3149999999999999,0.0,0.0,1
6.0,-7.5,0.0,0,0.0,450,1,13,1,0,0,0,31,3,0.5,-0.75,0.0,0.0,2
26.0,0.0,10.0,1,0.0,542,1,14,1,0,0,0,31,3,0.5,13.0,0.0,0.0,3
9.0,-4.5,0.0,0,0.0,507,1,15,1,0,0,0,31,3,0.5,2.25,1.0,0.0,0
2.0,-1.25,0.0,0,0.0,401,1,16,1,0,0,0,31,3,0.5,0.375,0.0,0.0,1
8.0,-3.0,0.0,0,0.0,455,1,17,1,0,0,0,31,3,0.5,2.5,0.0,0.0,2
25.0,0.0,9.0,0,9.0,562,1,18,1,0,0,0,31,3,0.5,12.5,0.0,0.0,3
4.0,-4.5,0.0,0,0.0,429,1,19,1,0,0,0,31,3,0.5,-0.25,0.0,9.0,4
5.0,-10.0,0.0,0,0.0,412,1,20,1,0,0,0,31,3,0.5,-2.5,0.0,0.0,5
4.0,-2.5,0.0,0,0.0,436,1,21,1,1,0,0,31,3,0.5,0.75,0.0,0.0,6
5.0,-5.63,0.0,0,0.0,456,1,22,1,1,0,0,31,3,0.5,-0.3149999999999999,0.0,0.0,7
5.0,0.0,2.0,1,0.0,311,1,23,1,1,0,0,31,3,0.5,2.5,0.0,0.0,8
30.0,0.0,12.0,1,0.0,333,1,24,1,1,0,0,31,3,0.5,15.0,1.0,0.0,0
9.0,-4.5,0.0,0,0.0,843,1,25,1,1,0,0,31,3,0.5,2.25,1.0,0.0,0
4.0,-7.5,0.0,0,0.0,443,1,26,1,1,0,0,31,3,0.5,-1.75,0.0,0.0,1
26.0,0.0,10.0,0,10.0,323,1,27,1,1,0,0,31,3,0.5,13.0,0.0,0.0,2
10.0,-6.25,0.0,0,0.0,358,1,28,1,1,0,0,31,3,0.5,1.875,0.0,10.0,3
2.0,-4.0,0.0,0,0.0,416,1,29,1,1,0,0,31,3,0.5,-1.0,0.0,0.0,4
4.0,-5.0,0.0,0,0.0,537,1,30,1,1,0,0,31,3,0.5,-0.5,0.0,0.0,5
5.0,-1.88,0.0,1,-1.88,528,1,31,1,1,0,0,31,3,0.5,1.56,0.0,0.0,6
23.0,0.0,10.0,1,0.0,579,1,32,1,1,0,0,31,3,0.5,11.5,1.0,-1.88,0
8.0,-3.0,0.0,0,0.0,432,1,33,1,1,0,0,31,3,0.5,2.5,1.0,0.0,0
8.0,-12.0,0.0,0,0.0,399,1,34,1,1,0,0,31,3,0.5,-2.0,0.0,0.0,1
10.0,-2.5,0.0,0,0.0,477,1,35,1,1,0,0,31,3,0.5,3.75,0.0,0.0,2
5.0,-8.13,0.0,0,0.0,332,1,36,1,1,0,0,31,3,0.5,-1.5650000000000004,0.0,0.0,3
8.0,-9.0,0.0,0,0.0,460,1,37,1,1,0,0,31,3,0.5,-0.5,0.0,0.0,4
2.0,-3.0,0.0,0,0.0,366,1,38,1,1,0,0,31,3,0.5,-0.5,0.0,0.0,5
9.0,-11.25,0.0,0,0.0,362,1,39,1,1,0,0,31,3,0.5,-1.125,0.0,0.0,6
9.0,-12.38,0.0,0,0.0,391,1,40,1,1,0,0,31,3,0.5,-1.6900000000000004,0.0,0.0,7
6.0,-9.0,0.0,0,0.0,367,1,41,1,0,0,0,31,3,0.5,-1.5,0.0,0.0,8
10.0,-6.25,0.0,0,0.0,433,1,42,1,0,0,0,31,3,0.5,1.875,0.0,0.0,9
4.0,-4.0,0.0,0,0.0,439,1,43,1,0,0,0,31,3,0.5,0.0,0.0,0.0,10
12.0,-3.0,0.0,0,0.0,407,1,44,1,0,0,0,31,3,0.5,4.5,0.0,0.0,11
5.0,-5.0,0.0,0,0.0,537,1,45,1,0,0,0,31,3,0.5,0.0,0.0,0.0,12
12.0,0.0,5.0,0,5.0,325,1,46,1,0,0,0,31,3,0.5,6.0,0.0,0.0,13
6.0,-9.75,0.0,0,0.0,832,1,47,1,0,0,0,31,3,0.5,-1.875,0.0,5.0,14
19.0,0.0,8.0,0,8.0,334,1,48,1,0,0,0,31,3,0.5,9.5,0.0,0.0,15
4.0,-7.5,0.0,0,0.0,377,1,49,1,0,0,0,31,3,0.5,-1.75,0.0,8.0,16
12.0,-9.0,0.0,0,0.0,360,1,50,1,0,0,0,31,3,0.5,1.5,0.0,0.0,17
4.0,-6.5,0.0,0,0.0,375,1,51,1,0,0,0,31,3,0.5,-1.25,0.0,0.0,18
9.0,-5.63,0.0,0,0.0,395,1,52,1,0,0,0,31,3,0.5,1.685,0.0,0.0,19
9.0,-18.0,0.0,0,0.0,564,1,53,1,0,0,0,31,3,0.5,-4.5,0.0,0.0,20
10.0,-11.25,0.0,0,0.0,252,1,54,1,0,0,0,31,3,0.5,-0.625,0.0,0.0,21
10.0,-13.75,0.0,0,0.0,260,1,55,1,0,0,0,31,3,0.5,-1.875,0.0,0.0,22
6.0,-12.0,0.0,0,0.0,431,1,56,1,0,0,0,31,3,0.5,-3.0,0.0,0.0,23
10.0,-12.5,0.0,0,0.0,397,1,57,1,0,0,0,31,3,0.5,-1.25,0.0,0.0,24
4.0,-7.0,0.0,0,0.0,505,1,58,1,0,0,0,31,3,0.5,-1.5,0.0,0.0,25
10.0,-7.5,0.0,0,0.0,411,1,59,1,0,0,0,31,3,0.5,1.25,0.0,0.0,26
4.0,-8.0,0.0,0,0.0,443,1,60,1,0,0,0,31,3,0.5,-2.0,0.0,0.0,27
8.0,-11.0,0.0,0,0.0,268,1,61,1,0,0,0,31,3,0.5,-1.5,0.0,0.0,28
12.0,0.0,4.0,1,12.0,341,1,62,1,0,0,0,31,3,0.5,6.0,0.0,0.0,29
9.0,-3.38,0.0,0,0.0,331,1,63,1,0,0,0,31,3,0.5,2.81,1.0,12.0,0
10.0,-18.75,0.0,0,0.0,441,1,64,1,0,0,0,31,3,0.5,-4.375,0.0,0.0,1
2.0,-3.5,0.0,0,0.0,397,1,65,1,0,0,0,31,3,0.5,-0.75,0.0,0.0,2
2.0,-1.0,0.0,0,0.0,365,1,66,1,0,0,0,31,3,0.5,0.5,0.0,0.0,3
2.0,-3.25,0.0,0,0.0,784,1,67,1,0,0,0,31,3,0.5,-0.625,0.0,0.0,4
2.0,0.0,1.0,0,1.0,380,1,68,1,0,0,0,31,3,0.5,1.0,0.0,0.0,5
7.0,0.0,3.0,0,3.0,316,1,69,1,0,0,0,31,3,0.5,3.5,0.0,1.0,6
8.0,0.0,3.0,0,3.0,599,1,70,1,0,0,0,31,3,0.5,4.0,0.0,3.0,7
12.0,-6.0,0.0,0,0.0,486,1,71,1,0,0,0,31,3,0.5,3.0,0.0,3.0,8
2.0,-0.5,0.0,1,2.0,432,1,72,1,0,0,0,31,3,0.5,0.75,0.0,0.0,9
9.0,-7.88,0.0,0,0.0,645,1,73,1,0,0,0,31,3,0.5,0.56,1.0,2.0,0
8.0,-15.0,0.0,0,0.0,369,1,74,1,0,0,0,31,3,0.5,-3.5,0.0,0.0,1
2.0,-1.5,0.0,0,0.0,386,1,75,1,0,0,0,31,3,0.5,0.25,0.0,0.0,2
12.0,-22.5,0.0,0,0.0,337,1,76,1,0,0,0,31,3,0.5,-5.25,0.0,0.0,3
8.0,-7.0,0.0,0,0.0,1056,1,77,1,0,0,0,31,3,0.5,0.5,0.0,0.0,4
4.0,-5.5,0.0,0,0.0,476,1,78,1,0,0,0,31,3,0.5,-0.75,0.0,0.0,5
10.0,-8.75,0.0,0,0.0,332,1,79,1,0,0,0,31,3,0.5,0.625,0.0,0.0,6
8.0,-9.0,0.0,0,0.0,418,1,80,1,0,0,0,31,3,0.5,-0.5,0.0,0.0,7
12.0,-15.0,0.0,0,0.0,352,1,81,1,1,0,0,31,3,0.5,-1.5,0.0,0.0,8
8.0,-10.0,0.0,0,0.0,338,1,82,1,1,0,0,31,3,0.5,-1.0,0.0,0.0,9
4.0,-1.0,0.0,1,4.0,325,1,83,1,1,0,0,31,3,0.5,1.5,0.0,0.0,10
8.0,0.0,3.0,1,8.0,386,1,84,1,1,0,0,31,3,0.5,4.0,1.0,4.0,0
4.0,-3.5,0.0,0,0.0,546,1,85,1,1,0,0,31,3,0.5,0.25,1.0,8.0,0
8.0,-8.0,0.0,0,0.0,808,1,86,1,1,0,0,31,3,0.5,0.0,0.0,0.0,1
10.0,-11.25,0.0,0,0.0,331,1,87,1,1,0,0,31,3,0.5,-0.625,0.0,0.0,2
10.0,-5.0,0.0,1,10.0,589,1,88,1,1,0,0,31,3,0.5,2.5,0.0,0.0,3
9.0,-13.5,0.0,0,0.0,404,1,89,1,1,0,0,31,3,0.5,-2.25,1.0,10.0,0
2.0,-0.75,0.0,1,2.0,287,1,90,1,1,0,0,31,3,0.5,0.625,0.0,0.0,1
2.0,-4.0,0.0,0,0.0,329,1,91,1,0,0,0,31,3,0.5,-1.0,1.0,2.0,0
4.0,0.0,2.0,1,4.0,321,1,92,1,0,0,0,31,3,0.5,2.0,0.0,0.0,1
8.0,-8.0,0.0,0,0.0,293,1,93,1,0,0,0,31,3,0.5,0.0,1.0,4.0,0
9.0,-13.5,0.0,0,0.0,363,1,94,1,0,0,0,31,3,0.5,-2.25,0.0,0.0,1
9.0,-9.0,0.0,0,0.0,455,1,95,1,0,0,0,31,3,0.5,0.0,0.0,0.0,2
6.0,-3.75,0.0,0,0.0,343,1,96,1,0,0,0,31,3,0.5,1.125,0.0,0.0,3
13.0,0.0,6.0,0,6.0,291,1,97,1,0,0,0,31,3,0.5,6.5,0.0,0.0,4
5.0,-1.88,0.0,1,5.0,413,1,98,1,0,0,0,31,3,0.5,1.56,0.0,6.0,5
6.0,-6.0,0.0,0,0.0,384,1,99,1,0,0,0,31,3,0.5,0.0,1.0,5.0,0
5.0,-6.88,0.0,0,0.0,463,1,100,1,0,0,0,31,3,0.5,-0.94,0.0,0.0,1
5.0,-4.38,0.0,0,0.0,396,1,101,1,1,0,0,31,3,0.5,0.31,0.0,0.0,2
2.0,-1.5,0.0,0,0.0,314,1,102,1,1,0,0,31,3,0.5,0.25,0.0,0.0,3
2.0,-3.75,0.0,0,0.0,305,1,103,1,1,0,0,31,3,0.5,-0.875,0.0,0.0,4
5.0,-3.75,0.0,0,0.0,423,1,104,1,1,0,0,31,3,0.5,0.625,0.0,0.0,5
9.0,-16.88,0.0,0,0.0,764,1,105,1,1,0,0,31,3,0.5,-3.939999999999999,0.0,0.0,6
9.0,-3.38,0.0,1,-3.38,377,1,106,1,1,0,0,31,3,0.5,2.81,0.0,0.0,7
5.0,-10.0,0.0,0,0.0,271,1,107,1,1,0,0,31,3,0.5,-2.5,1.0,-3.38,0
26.0,0.0,12.0,0,12.0,518,1,108,1,1,0,0,31,3,0.5,13.0,0.0,0.0,1
5.0,-9.38,0.0,0,0.0,362,1,109,1,1,0,0,31,3,0.5,-2.1900000000000004,0.0,12.0,2
6.0,-1.5,0.0,1,-1.5,343,1,110,1,1,0,0,31,3,0.5,2.25,0.0,0.0,3
10.0,-10.0,0.0,0,0.0,271,1,111,1,1,0,0,31,3,0.5,0.0,1.0,-1.5,0
2.0,-1.25,0.0,1,-1.25,446,1,112,1,1,0,0,31,3,0.5,0.375,0.0,0.0,1
9.0,-14.63,0.0,0,0.0,291,1,113,1,1,0,0,31,3,0.5,-2.8150000000000004,1.0,-1.25,0
6.0,-4.5,0.0,0,0.0,299,1,114,1,1,0,0,31,3,0.5,0.75,0.0,0.0,1
5.0,-5.0,0.0,0,0.0,290,1,115,1,1,0,0,31,3,0.5,0.0,0.0,0.0,2
5.0,-7.5,0.0,0,0.0,297,1,116,1,1,0,0,31,3,0.5,-1.25,0.0,0.0,3
8.0,-13.0,0.0,0,0.0,412,1,117,1,1,0,0,31,3,0.5,-2.5,0.0,0.0,4
5.0,-3.13,0.0,0,0.0,318,1,118,1,1,0,0,31,3,0.5,0.935,0.0,0.0,5
8.0,-5.0,0.0,0,0.0,297,1,119,1,1,0,0,31,3,0.5,1.5,0.0,0.0,6
8.0,-11.0,0.0,0,0.0,366,1,120,1,1,0,0,31,3,0.5,-1.5,0.0,0.0,7
8.0,-16.0,0.0,0,0.0,282,1,121,1,0,0,0,31,3,0.5,-4.0,0.0,0.0,8
12.0,-7.5,0.0,0,0.0,303,1,122,1,0,0,0,31,3,0.5,2.25,0.0,0.0,9
5.0,-1.25,0.0,1,-1.25,522,1,123,1,0,0,0,31,3,0.5,1.875,0.0,0.0,10
9.0,-14.63,0.0,0,0.0,471,1,124,1,0,0,0,31,3,0.5,-2.8150000000000004,1.0,-1.25,0
8.0,-4.0,0.0,0,0.0,291,1,125,1,0,0,0,31,3,0.5,2.0,0.0,0.0,1
10.0,-17.5,0.0,0,0.0,286,1,126,1,0,0,0,31,3,0.5,-3.75,0.0,0.0,2
5.0,-3.75,0.0,0,0.0,275,1,127,1,0,0,0,31,3,0.5,0.625,0.0,0.0,3
6.0,-10.5,0.0,0,0.0,264,1,128,1,0,0,0,31,3,0.5,-2.25,0.0,0.0,4
13.0,0.0,5.0,1,13.0,571,1,129,1,0,0,0,31,3,0.5,6.5,0.0,0.0,5
10.0,-16.25,0.0,0,0.0,528,1,130,1,0,0,0,31,3,0.5,-3.125,1.0,13.0,0
6.0,-6.75,0.0,0,0.0,272,1,131,1,1,0,0,31,3,0.5,-0.375,0.0,0.0,1
5.0,-8.75,0.0,0,0.0,538,1,132,1,1,0,0,31,3,0.5,-1.875,0.0,0.0,2
2.0,0.0,1.0,1,2.0,264,1,133,1,1,0,0,31,3,0.5,1.0,0.0,0.0,3
9.0,-5.63,0.0,0,0.0,379,1,134,1,1,0,0,31,3,0.5,1.685,1.0,2.0,0
6.0,-6.0,0.0,0,0.0,332,1,135,1,1,0,0,31,3,0.5,0.0,0.0,0.0,1
4.0,-5.5,0.0,0,0.0,325,1,136,1,1,0,0,31,3,0.5,-0.75,0.0,0.0,2
6.0,-3.0,0.0,0,0.0,336,1,137,1,1,0,0,31,3,0.5,1.5,0.0,0.0,3
12.0,-19.5,0.0,0,0.0,287,1,138,1,1,0,0,31,3,0.5,-3.75,0.0,0.0,4
10.0,-13.75,0.0,0,0.0,598,1,139,1,1,0,0,31,3,0.5,-1.875,0.0,0.0,5
10.0,-8.75,0.0,0,0.0,509,1,140,1,1,0,0,31,3,0.5,0.625,0.0,0.0,6
5.0,-7.5,0.0,0,0.0,281,1,141,1,0,0,0,31,3,0.5,-1.25,0.0,0.0,7
2.0,-1.75,0.0,0,0.0,369,1,142,1,0,0,0,31,3,0.5,0.125,0.0,0.0,8
5.0,-9.38,0.0,0,0.0,261,1,143,1,0,0,0,31,3,0.5,-2.1900000000000004,0.0,0.0,9
2.0,-2.75,0.0,0,0.0,240,1,144,1,0,0,0,31,3,0.5,-0.375,0.0,0.0,10
2.0,-0.75,0.0,1,-0.75,321,1,145,1,0,0,0,31,3,0.5,0.625,0.0,0.0,11
5.0,-8.13,0.0,0,0.0,419,1,146,1,0,0,0,31,3,0.5,-1.5650000000000004,1.0,-0.75,0
9.0,-11.25,0.0,0,0.0,283,1,147,1,0,0,0,31,3,0.5,-1.125,0.0,0.0,1
8.0,-13.0,0.0,0,0.0,256,1,148,1,0,0,0,31,3,0.5,-2.5,0.0,0.0,2
9.0,-16.88,0.0,0,0.0,405,1,149,1,0,0,0,31,3,0.5,-3.939999999999999,0.0,0.0,3
2.0,-2.0,0.0,0,0.0,434,1,150,1,0,0,0,31,3,0.5,0.0,0.0,0.0,4
12.0,-18.0,0.0,0,0.0,278,1,151,1,0,0,0,31,3,0.5,-3.0,0.0,0.0,5
8.0,-2.0,0.0,1,-2.0,480,1,152,1,0,0,0,31,3,0.5,3.0,0.0,0.0,6
2.0,-3.0,0.0,0,0.0,351,1,153,1,0,0,0,31,3,0.5,-0.5,1.0,-2.0,0
6.0,-4.5,0.0,0,0.0,275,1,154,1,0,0,0,31,3,0.5,0.75,0.0,0.0,1
5.0,0.0,2.0,1,5.0,619,1,155,1,0,0,0,31,3,0.5,2.5,0.0,0.0,2
12.0,-19.5,0.0,0,0.0,362,1,156,1,0,0,0,31,3,0.5,-3.75,1.0,5.0,0
9.0,-15.75,0.0,0,0.0,457,1,157,1,0,0,0,31,3,0.5,-3.375,0.0,0.0,1
8.0,-6.0,0.0,0,0.0,673,1,158,1,0,0,0,31,3,0.5,1.0,0.0,0.0,2
10.0,-2.5,0.0,1,-2.5,383,1,159,1,0,0,0,31,3,0.5,3.75,0.0,0.0,3
9.0,-6.75,0.0,0,0.0,421,1,160,1,0,0,0,31,3,0.5,1.125,1.0,-2.5,0
5.0,-6.88,0.0,0,0.0,278,1,161,1,1,0,0,31,3,0.5,-0.94,0.0,0.0,1
6.0,-7.5,0.0,0,0.0,384,1,162,1,1,0,0,31,3,0.5,-0.75,0.0,0.0,2
10.0,-12.5,0.0,0,0.0,252,1,163,1,1,0,0,31,3,0.5,-1.25,0.0,0.0,3
9.0,-6.75,0.0,0,0.0,253,1,164,1,1,0,0,31,3,0.5,1.125,0.0,0.0,4
4.0,-6.0,0.0,0,0.0,391,1,165,1,1,0,0,31,3,0.5,-1.0,0.0,0.0,5
8.0,-4.0,0.0,1,-4.0,272,1,166,1,1,0,0,31,3,0.5,2.0,0.0,0.0,6
2.0,-1.0,0.0,1,2.0,286,1,167,1,1,0,0,31,3,0.5,0.5,1.0,-4.0,0
12.0,-24.0,0.0,0,0.0,428,1,168,1,1,0,0,31,3,0.5,-6.0,1.0,2.0,0
12.0,-6.0,0.0,0,0.0,286,1,169,1,1,0,0,31,3,0.5,3.0,0.0,0.0,1
2.0,-2.0,0.0,0,0.0,240,1,170,1,1,0,0,31,3,0.5,0.0,0.0,0.0,2
6.0,-6.75,0.0,0,0.0,458,1,171,1,0,0,0,31,3,0.5,-0.375,0.0,0.0,3
2.0,-3.75,0.0,0,0.0,280,1,172,1,0,0,0,31,3,0.5,-0.875,0.0,0.0,4
10.0,-5.0,0.0,0,0.0,338,1,173,1,0,0,0,31,3,0.5,2.5,0.0,0.0,5
2.0,-2.25,0.0,0,0.0,388,1,174,1,0,0,0,31,3,0.5,-0.125,0.0,0.0,6
26.0,0.0,12.0,0,12.0,403,1,175,1,0,0,0,31,3,0.5,13.0,0.0,0.0,7
12.0,-13.5,0.0,0,0.0,347,1,176,1,0,0,0,31,3,0.5,-0.75,0.0,12.0,8
8.0,-5.0,0.0,0,0.0,305,1,177,1,0,0,0,31,3,0.5,1.5,0.0,0.0,9
6.0,-3.0,0.0,0,0.0,274,1,178,1,0,0,0,31,3,0.5,1.5,0.0,0.0,10
10.0,-3.75,0.0,0,0.0,254,1,179,1,0,0,0,31,3,0.5,3.125,0.0,0.0,11
12.0,-10.5,0.0,0,0.0,259,1,180,1,0,0,0,31,3,0.5,0.75,0.0,0.0,12
4.0,-7.0,0.0,0,0.0,287,1,181,1,1,0,0,31,3,0.5,-1.5,0.0,0.0,13
12.0,-9.0,0.0,0,0.0,312,1,182,1,1,0,0,31,3,0.5,1.5,0.0,0.0,14
6.0,-11.25,0.0,0,0.0,535,1,183,1,1,0,0,31,3,0.5,-2.625,0.0,0.0,15
25.0,0.0,10.0,0,10.0,290,1,184,1,1,0,0,31,3,0.5,12.5,0.0,0.0,16
28.0,0.0,13.0,0,13.0,349,1,185,1,1,0,0,31,3,0.5,14.0,0.0,10.0,17
2.0,-2.75,0.0,0,0.0,435,1,186,1,1,0,0,31,3,0.5,-0.375,0.0,13.0,18
12.0,-10.5,0.0,0,0.0,274,1,187,1,1,0,0,31,3,0.5,0.75,0.0,0.0,19
8.0,-14.0,0.0,0,0.0,284,1,188,1,1,0,0,31,3,0.5,-3.0,0.0,0.0,20
4.0,-6.5,0.0,0,0.0,419,1,189,1,1,0,0,31,3,0.5,-1.25,0.0,0.0,21
4.0,0.0,2.0,1,4.0,357,1,190,1,1,0,0,31,3,0.5,2.0,0.0,0.0,22
10.0,-15.0,0.0,0,0.0,311,1,191,1,1,0,0,31,3,0.5,-2.5,1.0,4.0,0
12.0,0.0,5.0,1,0.0,274,1,192,1,1,0,0,31,3,0.5,6.0,0.0,0.0,1
10.0,-18.75,0.0,0,0.0,323,1,193,1,1,0,0,31,3,0.5,-4.375,1.0,0.0,0
12.0,-3.0,0.0,1,12.0,304,1,194,1,1,0,0,31,3,0.5,4.5,0.0,0.0,1
4.0,-4.0,0.0,0,0.0,312,1,195,1,1,0,0,31,3,0.5,0.0,1.0,12.0,0
9.0,-7.88,0.0,0,0.0,326,1,196,1,1,0,0,31,3,0.5,0.56,0.0,0.0,1
9.0,-2.25,0.0,1,-2.25,292,1,197,1,1,0,0,31,3,0.5,3.375,0.0,0.0,2
2.0,-1.75,0.0,0,0.0,579,1,198,1,1,0,0,31,3,0.5,0.125,1.0,-2.25,0
12.0,0.0,6.0,1,0.0,281,1,199,1,1,0,0,31,3,0.5,6.0,0.0,0.0,1
5.0,-2.5,0.0,0,0.0,458,1,200,1,1,0,0,31,3,0.5,1.25,1.0,0.0,0
4.0,-5.0,0.0,0,0.0,298,1,201,1,0,0,0,31,3,0.5,-0.5,0.0,0.0,1
9.0,-2.25,0.0,0,0.0,1166,1,202,1,0,0,0,31,3,0.5,3.375,0.0,0.0,2
4.0,-3.0,0.0,0,0.0,753,1,203,1,0,0,0,31,3,0.5,0.5,0.0,0.0,3
9.0,-10.13,0.0,0,0.0,631,1,204,1,0,0,0,31,3,0.5,-0.5650000000000004,0.0,0.0,4
28.0,0.0,13.0,0,13.0,328,1,205,1,0,0,0,31,3,0.5,14.0,0.0,0.0,5
22.0,0.0,10.0,0,10.0,463,1,206,1,0,0,0,31,3,0.5,11.0,0.0,13.0,6
10.0,-10.0,0.0,0,0.0,979,1,207,1,0,0,0,31,3,0.5,0.0,0.0,10.0,7
4.0,-1.0,0.0,0,0.0,506,1,208,1,0,0,0,31,3,0.5,1.5,0.0,0.0,8
4.0,-2.5,0.0,0,0.0,620,1,209,1,0,0,0,31,3,0.5,0.75,0.0,0.0,9
12.0,-24.0,0.0,0,0.0,422,1,210,1,0,0,0,31,3,0.5,-6.0,0.0,0.0,10
8.0,-12.0,0.0,0,0.0,273,1,211,1,0,0,0,31,3,0.5,-2.0,0.0,0.0,11
3.0,0.0,1.0,1,0.0,326,1,212,1,0,0,0,31,3,0.5,1.5,0.0,0.0,12
9.0,-12.38,0.0,0,0.0,676,1,213,1,0,0,0,31,3,0.5,-1.6900000000000004,1.0,0.0,0
23.0,0.0,10.0,0,10.0,258,1,214,1,0,0,0,31,3,0.5,11.5,0.0,0.0,1
4.0,-3.5,0.0,0,0.0,415,1,215,1,0,0,0,31,3,0.5,0.25,0.0,10.0,2
4.0,-1.5,0.0,0,0.0,501,1,216,1,0,0,0,31,3,0.5,1.25,0.0,0.0,3
8.0,-10.0,0.0,0,0.0,326,1,217,1,0,0,0,31,3,0.5,-1.0,0.0,0.0,4
8.0,-14.0,0.0,0,0.0,231,1,218,1,0,0,0,31,3,0.5,-3.0,0.0,0.0,5
4.0,-6.0,0.0,0,0.0,293,1,219,1,0,0,0,31,3,0.5,-1.0,0.0,0.0,6
25.0,0.0,10.0,0,10.0,244,1,220,1,0,0,0,31,3,0.5,12.5,0.0,0.0,7
4.0,-4.5,0.0,0,0.0,353,1,221,1,1,0,0,31,3,0.5,-0.25,0.0,10.0,8
8.0,-6.0,0.0,0,0.0,262,1,222,1,1,0,0,31,3,0.5,1.0,0.0,0.0,9
12.0,-18.0,0.0,0,0.0,370,1,223,1,1,0,0,31,3,0.5,-3.0,0.0,0.0,10
12.0,-16.5,0.0,0,0.0,530,1,224,1,1,0,0,31,3,0.5,-2.25,0.0,0.0,11
22.0,0.0,10.0,0,10.0,334,1,225,1,1,0,0,31,3,0.5,11.0,0.0,0.0,12
12.0,-21.0,0.0,0,0.0,614,1,226,1,1,0,0,31,3,0.5,-4.5,0.0,10.0,13
12.0,-4.5,0.0,0,0.0,313,1,227,1,1,0,0,31,3,0.5,3.75,0.0,0.0,14
12.0,-12.0,0.0,0,0.0,473,1,228,1,1,0,0,31,3,0.5,0.0,0.0,0.0,15
19.0,0.0,8.0,0,8.0,257,1,229,1,1,0,0,31,3,0.5,9.5,0.0,0.0,16
2.0,-2.5,0.0,0,0.0,798,1,230,1,1,0,0,31,3,0.5,-0.25,0.0,8.0,17
12.0,0.0,4.0,1,12.0,343,1,231,1,1,0,0,31,3,0.5,6.0,0.0,0.0,18
4.0,-2.0,0.0,0,0.0,289,1,232,1,1,0,0,31,3,0.5,1.0,1.0,12.0,0
9.0,-9.0,0.0,0,0.0,305,1,233,1,1,0,0,31,3,0.5,0.0,0.0,0.0,1
9.0,-10.13,0.0,0,0.0,404,1,234,1,1,0,0,31,3,0.5,-0.5650000000000004,0.0,0.0,2
6.0,-2.25,0.0,1,6.0,272,1,235,1,1,0,0,31,3,0.5,1.875,0.0,0.0,3
2.0,-0.5,0.0,1,-0.5,276,1,236,1,1,0,0,31,3,0.5,0.75,1.0,6.0,0
10.0,-3.75,0.0,1,10.0,288,1,237,1,1,0,0,31,3,0.5,3.125,1.0,-0.5,0
13.0,0.0,5.0,1,13.0,277,1,238,1,1,0,0,31,3,0.5,6.5,1.0,10.0,0
4.0,-1.5,0.0,1,4.0,309,1,239,1,1,0,0,31,3,0.5,1.25,1.0,13.0,0
5.0,-1.25,0.0,1,5.0,288,1,240,1,1,0,0,31,3,0.5,1.875,1.0,4.0,0
12.0,-16.5,0.0,0,0.0,408,1,241,1,0,0,0,31,3,0.5,-2.25,1.0,5.0,0
12.0,-12.0,0.0,0,0.0,368,1,242,1,0,0,0,31,3,0.5,0.0,0.0,0.0,1
5.0,-2.5,0.0,0,0.0,416,1,243,1,0,0,0,31,3,0.5,1.25,0.0,0.0,2
5.0,-8.75,0.0,0,0.0,530,1,244,1,0,0,0,31,3,0.5,-1.875,0.0,0.0,3
12.0,-4.5,0.0,0,0.0,818,1,245,1,0,0,0,31,3,0.5,3.75,0.0,0.0,4
12.0,-15.0,0.0,0,0.0,378,1,246,1,0,0,0,31,3,0.5,-1.5,0.0,0.0,5
5.0,-3.13,0.0,0,0.0,707,1,247,1,0,0,0,31,3,0.5,0.935,0.0,0.0,6
12.0,-21.0,0.0,0,0.0,403,1,248,1,0,0,0,31,3,0.5,-4.5,0.0,0.0,7
5.0,-4.38,0.0,0,0.0,635,1,249,1,0,0,0,31,3,0.5,0.31,0.0,0.0,8
6.0,-11.25,0.0,0,0.0,454,1,250,1,0,0,0,31,3,0.5,-2.625,0.0,0.0,9
6.0,-9.0,0.0,0,0.0,336,1,251,1,1,0,0,31,3,0.5,-1.5,0.0,0.0,10
10.0,-17.5,0.0,0,0.0,899,1,252,1,1,0,0,31,3,0.5,-3.75,0.0,0.0,11
6.0,-12.0,0.0,0,0.0,289,1,253,1,1,0,0,31,3,0.5,-3.0,0.0,0.0,12
6.0,-5.25,0.0,0,0.0,292,1,254,1,1,0,0,31,3,0.5,0.375,0.0,0.0,13
12.0,-22.5,0.0,0,0.0,594,1,255,1,1,0,0,31,3,0.5,-5.25,0.0,0.0,14
8.0,-16.0,0.0,0,0.0,239,1,256,1,1,0,0,31,3,0.5,-4.0,0.0,0.0,15
9.0,-15.75,0.0,0,0.0,283,1,257,1,1,0,0,31,3,0.5,-3.375,0.0,0.0,16
10.0,-20.0,0.0,0,0.0,368,1,258,1,1,0,0,31,3,0.5,-5.0,0.0,0.0,17
13.0,0.0,6.0,1,0.0,300,1,259,1,1,0,0,31,3,0.5,6.5,0.0,0.0,18
4.0,-8.0,0.0,0,0.0,305,1,260,1,1,0,0,31,3,0.5,-2.0,1.0,0.0,0
30.0,0.0,12.0,0,12.0,201,1,261,1,0,0,0,31,3,0.5,15.0,0.0,0.0,1
6.0,-1.5,0.0,1,6.0,412,1,262,1,0,0,0,31,3,0.5,2.25,0.0,12.0,2
12.0,0.0,6.0,0,6.0,308,1,263,1,0,0,0,31,3,0.5,6.0,1.0,6.0,0
4.0,-2.0,0.0,0,0.0,410,1,264,1,0,0,0,31,3,0.5,1.0,0.0,6.0,1
10.0,-15.0,0.0,0,0.0,363,1,265,1,0,0,0,31,3,0.5,-2.5,0.0,0.0,2
6.0,-2.25,0.0,0,0.0,326,1,266,1,0,0,0,31,3,0.5,1.875,0.0,0.0,3
10.0,-20.0,0.0,0,0.0,297,1,267,1,0,0,0,31,3,0.5,-5.0,0.0,0.0,4
6.0,-5.25,0.0,0,0.0,270,1,268,1,0,0,0,31,3,0.5,0.375,0.0,0.0,5
5.0,-6.25,0.0,0,0.0,272,1,269,1,0,0,0,31,3,0.5,-0.625,0.0,0.0,6
6.0,-8.25,0.0,0,0.0,741,1,270,1,0,0,0,31,3,0.5,-1.125,0.0,0.0,7
12.0,-7.5,0.0,0,0.0,321,1,271,1,1,0,0,31,3,0.5,2.25,0.0,0.0,8
9.0,-18.0,0.0,0,0.0,518,1,272,1,1,0,0,31,3,0.5,-4.5,0.0,0.0,9
2.0,-3.25,0.0,0,0.0,341,1,273,1,1,0,0,31,3,0.5,-0.625,0.0,0.0,10
7.0,0.0,3.0,0,3.0,295,1,274,1,1,0,0,31,3,0.5,3.5,0.0,0.0,11
6.0,-3.75,0.0,0,0.0,273,1,275,1,1,0,0,31,3,0.5,1.125,0.0,3.0,12
5.0,-6.25,0.0,0,0.0,439,1,276,1,1,0,0,31,3,0.5,-0.625,0.0,0.0,13
8.0,-15.0,0.0,0,0.0,383,1,277,1,1,0,0,31,3,0.5,-3.5,0.0,0.0,14
25.0,0.0,9.0,0,9.0,400,1,278,1,1,0,0,31,3,0.5,12.5,0.0,0.0,15
2.0,-3.5,0.0,0,0.0,325,1,279,1,1,0,0,31,3,0.5,-0.75,0.0,9.0,16
6.0,-10.5,0.0,0,0.0,535,1,280,1,1,0,0,31,3,0.5,-2.25,0.0,0.0,17
9.0,-10.13,0.0,1,-10.13,790,1,1,1,1,0,0,32,4,0.5,-0.5650000000000004,,,0
12.0,-10.5,0.0,0,0.0,796,1,2,1,1,0,0,32,4,0.5,0.75,1.0,-10.13,0
25.0,0.0,10.0,1,25.0,733,1,3,1,1,0,0,32,4,0.5,12.5,0.0,0.0,1
4.0,-7.0,0.0,1,-7.0,709,1,4,1,1,0,0,32,4,0.5,-1.5,1.0,25.0,0
9.0,-7.88,0.0,0,0.0,921,1,5,1,1,0,0,32,4,0.5,0.56,1.0,-7.0,0
5.0,-3.13,0.0,1,5.0,704,1,6,1,1,0,0,32,4,0.5,0.935,0.0,0.0,1
5.0,-8.13,0.0,1,5.0,741,1,7,1,1,0,0,32,4,0.5,-1.5650000000000004,1.0,5.0,0
8.0,-7.0,0.0,0,0.0,746,1,8,1,1,0,0,32,4,0.5,0.5,1.0,5.0,0
12.0,-6.0,0.0,1,-6.0,733,1,9,1,1,0,0,32,4,0.5,3.0,0.0,0.0,1
12.0,-24.0,0.0,0,0.0,704,1,10,1,1,0,0,32,4,0.5,-6.0,1.0,-6.0,0
12.0,-21.0,0.0,0,0.0,818,1,11,1,1,0,0,32,4,0.5,-4.5,0.0,0.0,1
4.0,-2.5,0.0,1,4.0,547,1,12,1,1,0,0,32,4,0.5,0.75,0.0,0.0,2
6.0,-9.0,0.0,0,0.0,838,1,13,1,1,0,0,32,4,0.5,-1.5,1.0,4.0,0
10.0,-15.0,0.0,1,10.0,427,1,14,1,1,0,0,32,4,0.5,-2.5,0.0,0.0,1
8.0,-6.0,0.0,1,-6.0,699,1,15,1,1,0,0,32,4,0.5,1.0,1.0,10.0,0
13.0,0.0,6.0,1,0.0,733,1,16,1,1,0,0,32,4,0.5,6.5,1.0,-6.0,0
6.0,-12.0,0.0,1,-12.0,636,1,17,1,1,0,0,32,4,0.5,-3.0,1.0,0.0,0
6.0,-4.5,0.0,0,0.0,604,1,18,1,1,0,0,32,4,0.5,0.75,1.0,-12.0,0
9.0,-16.88,0.0,0,0.0,1688,1,19,1,1,0,0,32,4,0.5,-3.939999999999999,0.0,0.0,1
10.0,-18.75,0.0,1,10.0,607,1,20,1,1,0,0,32,4,0.5,-4.375,0.0,0.0,2
4.0,-4.5,0.0,1,-4.5,743,1,21,1,0,0,0,32,4,0.5,-0.25,1.0,10.0,0
10.0,-12.5,0.0,0,0.0,1065,1,22,1,0,0,0,32,4,0.5,-1.25,1.0,-4.5,0
26.0,0.0,12.0,1,26.0,576,1,23,1,0,0,0,32,4,0.5,13.0,0.0,0.0,1
6.0,-7.5,0.0,1,-7.5,891,1,24,1,0,0,0,32,4,0.5,-0.75,1.0,26.0,0
4.0,-6.5,0.0,0,0.0,655,1,25,1,0,0,0,32,4,0.5,-1.25,1.0,-7.5,0
12.0,-4.5,0.0,1,-4.5,735,1,26,1,0,0,0,32,4,0.5,3.75,0.0,0.0,1
5.0,-2.5,0.0,1,5.0,733,1,27,1,0,0,0,32,4,0.5,1.25,1.0,-4.5,0
6.0,-12.0,0.0,0,0.0,810,1,28,1,0,0,0,32,4,0.5,-3.0,1.0,5.0,0
9.0,-14.63,0.0,1,9.0,684,1,29,1,0,0,0,32,4,0.5,-2.8150000000000004,0.0,0.0,1
6.0,-6.0,0.0,0,0.0,629,1,30,1,0,0,0,32,4,0.5,0.0,1.0,9.0,0
9.0,-3.38,0.0,1,-3.38,880,1,31,1,1,0,0,32,4,0.5,2.81,0.0,0.0,1
6.0,-9.75,0.0,1,-9.75,712,1,32,1,1,0,0,32,4,0.5,-1.875,1.0,-3.38,0
2.0,-1.75,0.0,0,0.0,477,1,33,1,1,0,0,32,4,0.5,0.125,1.0,-9.75,0
5.0,0.0,2.0,0,2.0,1241,1,34,1,1,0,0,32,4,0.5,2.5,0.0,0.0,1
8.0,-5.0,0.0,1,-5.0,399,1,35,1,1,0,0,32,4,0.5,1.5,0.0,2.0,2
8.0,-9.0,0.0,0,0.0,560,1,36,1,1,0,0,32,4,0.5,-0.5,1.0,-5.0,0
12.0,0.0,6.0,1,0.0,399,1,37,1,1,0,0,32,4,0.5,6.0,0.0,0.0,1
12.0,0.0,4.0,1,12.0,961,1,38,1,1,0,0,32,4,0.5,6.0,1.0,0.0,0
2.0,-2.5,0.0,0,0.0,754,1,39,1,1,0,0,32,4,0.5,-0.25,1.0,12.0,0
6.0,-3.0,0.0,1,-3.0,460,1,40,1,1,0,0,32,4,0.5,1.5,0.0,0.0,1
22.0,0.0,10.0,1,22.0,647,1,41,1,0,0,0,32,4,0.5,11.0,1.0,-3.0,0
2.0,-1.0,0.0,1,2.0,588,1,42,1,0,0,0,32,4,0.5,0.5,1.0,22.0,0
8.0,-3.0,0.0,1,8.0,1188,1,43,1,0,0,0,32,4,0.5,2.5,1.0,2.0,0
12.0,-9.0,0.0,0,0.0,730,1,44,1,0,0,0,32,4,0.5,1.5,1.0,8.0,0
5.0,-3.75,0.0,1,5.0,524,1,45,1,0,0,0,32,4,0.5,0.625,0.0,0.0,1
6.0,-3.0,0.0,1,6.0,738,1,46,1,0,0,0,32,4,0.5,1.5,1.0,5.0,0
4.0,0.0,2.0,0,2.0,498,1,47,1,0,0,0,32,4,0.5,2.0,1.0,6.0,0
28.0,0.0,13.0,1,28.0,656,1,48,1,0,0,0,32,4,0.5,14.0,0.0,2.0,1
12.0,-15.0,0.0,0,0.0,516,1,49,1,0,0,0,32,4,0.5,-1.5,1.0,28.0,0
9.0,-11.25,0.0,0,0.0,636,1,50,1,0,0,0,32,4,0.5,-1.125,0.0,0.0,1
10.0,-7.5,0.0,1,-7.5,682,1,51,1,1,0,0,32,4,0.5,1.25,0.0,0.0,2
5.0,-2.5,0.0,1,-2.5,702,1,52,1,1,0,0,32,4,0.5,1.25,1.0,-7.5,0
5.0,-3.75,0.0,1,5.0,777,1,53,1,1,0,0,32,4,0.5,0.625,1.0,-2.5,0
10.0,-3.75,0.0,1,10.0,642,1,54,1,1,0,0,32,4,0.5,3.125,1.0,5.0,0
2.0,-3.0,0.0,0,0.0,584,1,55,1,1,0,0,32,4,0.5,-0.5,1.0,10.0,0
10.0,-6.25,0.0,1,-6.25,662,1,56,1,1,0,0,32,4,0.5,1.875,0.0,0.0,1
4.0,-7.5,0.0,0,0.0,782,1,57,1,1,0,0,32,4,0.5,-1.75,1.0,-6.25,0
8.0,-16.0,0.0,0,0.0,735,1,58,1,1,0,0,32,4,0.5,-4.0,0.0,0.0,1
5.0,-6.25,0.0,1,5.0,580,1,59,1,1,0,0,32,4,0.5,-0.625,0.0,0.0,2
4.0,0.0,2.0,1,4.0,946,1,60,1,1,0,0,32,4,0.5,2.0,1.0,5.0,0
12.0,-10.5,0.0,1,12.0,442,1,61,1,0,0,0,32,4,0.5,0.75,1.0,4.0,0
5.0,-1.88,0.0,1,5.0,606,1,62,1,0,0,0,32,4,0.5,1.56,1.0,12.0,0
2.0,-2.75,0.0,0,0.0,547,1,63,1,0,0,0,32,4,0.5,-0.375,1.0,5.0,0
4.0,-7.0,0.0,0,0.0,924,1,64,1,0,0,0,32,4,0.5,-1.5,0.0,0.0,1
8.0,-4.0,0.0,1,8.0,701,1,65,1,0,0,0,32,4,0.5,2.0,0.0,0.0,2
2.0,0.0,1.0,1,0.0,684,1,66,1,0,0,0,32,4,0.5,1.0,1.0,8.0,0
2.0,-3.5,0.0,0,0.0,626,1,67,1,0,0,0,32,4,0.5,-0.75,1.0,0.0,0
2.0,-1.75,0.0,1,2.0,648,1,68,1,0,0,0,32,4,0.5,0.125,0.0,0.0,1
5.0,-5.0,0.0,0,0.0,832,1,69,1,0,0,0,32,4,0.5,0.0,1.0,2.0,0
12.0,-12.0,0.0,1,12.0,594,1,70,1,0,0,0,32,4,0.5,0.0,0.0,0.0,1
10.0,-11.25,0.0,1,10.0,892,1,71,1,1,0,0,32,4,0.5,-0.625,1.0,12.0,0
5.0,-6.88,0.0,0,0.0,765,1,72,1,1,0,0,32,4,0.5,-0.94,1.0,10.0,0
5.0,-7.5,0.0,1,5.0,711,1,73,1,1,0,0,32,4,0.5,-1.25,0.0,0.0,1
26.0,0.0,12.0,0,12.0,1022,1,74,1,1,0,0,32,4,0.5,13.0,1.0,5.0,0
8.0,-13.0,0.0,1,8.0,395,1,75,1,1,0,0,32,4,0.5,-2.5,0.0,12.0,1
4.0,-4.5,0.0,0,0.0,612,1,76,1,1,0,0,32,4,0.5,-0.25,1.0,8.0,0
8.0,-10.0,0.0,1,-10.0,626,1,77,1,1,0,0,32,4,0.5,-1.0,0.0,0.0,1
6.0,-3.75,0.0,1,6.0,499,1,78,1,1,0,0,32,4,0.5,1.125,1.0,-10.0,0
5.0,-5.63,0.0,0,0.0,738,1,79,1,1,0,0,32,4,0.5,-0.3149999999999999,1.0,6.0,0
9.0,-18.0,0.0,0,0.0,700,1,80,1,1,0,0,32,4,0.5,-4.5,0.0,0.0,1
12.0,0.0,6.0,1,12.0,505,1,81,1,0,0,0,32,4,0.5,6.0,0.0,0.0,2
6.0,-4.5,0.0,0,0.0,802,1,82,1,0,0,0,32,4,0.5,0.75,1.0,12.0,0
30.0,0.0,12.0,0,12.0,882,1,83,1,0,0,0,32,4,0.5,15.0,0.0,0.0,1
12.0,-16.5,0.0,0,0.0,593,1,84,1,0,0,0,32,4,0.5,-2.25,0.0,12.0,2
6.0,-9.75,0.0,1,6.0,511,1,85,1,0,0,0,32,4,0.5,-1.875,0.0,0.0,3
12.0,-22.5,0.0,0,0.0,1164,1,86,1,0,0,0,32,4,0.5,-5.25,1.0,6.0,0
6.0,-9.0,0.0,1,-9.0,728,1,87,1,0,0,0,32,4,0.5,-1.5,0.0,0.0,1
5.0,-3.13,0.0,0,0.0,702,1,88,1,0,0,0,32,4,0.5,0.935,1.0,-9.0,0
5.0,-9.38,0.0,0,0.0,573,1,89,1,0,0,0,32,4,0.5,-2.1900000000000004,0.0,0.0,1
12.0,-7.5,0.0,1,-7.5,602,1,90,1,0,0,0,32,4,0.5,2.25,0.0,0.0,2
12.0,-13.5,0.0,1,12.0,396,1,91,1,1,0,0,32,4,0.5,-0.75,1.0,-7.5,0
7.0,0.0,3.0,0,3.0,1223,1,92,1,1,0,0,32,4,0.5,3.5,1.0,12.0,0
8.0,-14.0,0.0,1,8.0,828,1,93,1,1,0,0,32,4,0.5,-3.0,0.0,3.0,1
2.0,-1.5,0.0,0,0.0,473,1,94,1,1,0,0,32,4,0.5,0.25,1.0,8.0,0
10.0,-2.5,0.0,1,-2.5,556,1,95,1,1,0,0,32,4,0.5,3.75,0.0,0.0,1
13.0,0.0,5.0,1,13.0,363,1,96,1,1,0,0,32,4,0.5,6.5,1.0,-2.5,0
9.0,-15.75,0.0,0,0.0,671,1,97,1,1,0,0,32,4,0.5,-3.375,1.0,13.0,0
8.0,-12.0,0.0,0,0.0,535,1,98,1,1,0,0,32,4,0.5,-2.0,0.0,0.0,1
28.0,0.0,13.0,1,0.0,614,1,99,1,1,0,0,32,4,0.5,14.0,0.0,0.0,2
6.0,-7.5,0.0,0,0.0,759,1,100,1,1,0,0,32,4,0.5,-0.75,1.0,0.0,0
10.0,-16.25,0.0,0,0.0,608,1,101,1,1,0,0,32,4,0.5,-3.125,0.0,0.0,1
12.0,-7.5,0.0,1,-7.5,636,1,102,1,1,0,0,32,4,0.5,2.25,0.0,0.0,2
5.0,-5.0,0.0,0,0.0,705,1,103,1,1,0,0,32,4,0.5,0.0,1.0,-7.5,0
2.0,-2.0,0.0,1,2.0,935,1,104,1,1,0,0,32,4,0.5,0.0,0.0,0.0,1
22.0,0.0,10.0,0,10.0,659,1,105,1,1,0,0,32,4,0.5,11.0,1.0,2.0,0
2.0,-1.0,0.0,1,2.0,562,1,106,1,1,0,0,32,4,0.5,0.5,0.0,10.0,1
3.0,0.0,1.0,1,3.0,446,1,107,1,1,0,0,32,4,0.5,1.5,1.0,2.0,0
4.0,-5.5,0.0,0,0.0,619,1,108,1,1,0,0,32,4,0.5,-0.75,1.0,3.0,0
2.0,-2.25,0.0,1,2.0,567,1,109,1,1,0,0,32,4,0.5,-0.125,0.0,0.0,1
6.0,-2.25,0.0,1,6.0,987,1,110,1,1,0,0,32,4,0.5,1.875,1.0,2.0,0
5.0,0.0,2.0,1,5.0,721,1,111,1,0,0,0,32,4,0.5,2.5,1.0,6.0,0
10.0,-15.0,0.0,0,0.0,479,1,112,1,0,0,0,32,4,0.5,-2.5,1.0,5.0,0
12.0,-3.0,0.0,1,-3.0,602,1,113,1,0,0,0,32,4,0.5,4.5,0.0,0.0,1
13.0,0.0,6.0,0,6.0,699,1,114,1,0,0,0,32,4,0.5,6.5,1.0,-3.0,0
9.0,-16.88,0.0,0,0.0,676,1,115,1,0,0,0,32,4,0.5,-3.939999999999999,0.0,6.0,1
6.0,-11.25,0.0,0,0.0,534,1,116,1,0,0,0,32,4,0.5,-2.625,0.0,0.0,2
8.0,-5.0,0.0,1,8.0,1128,1,117,1,0,0,0,32,4,0.5,1.5,0.0,0.0,3
8.0,-14.0,0.0,0,0.0,749,1,118,1,0,0,0,32,4,0.5,-3.0,1.0,8.0,0
12.0,-24.0,0.0,1,-24.0,497,1,119,1,0,0,0,32,4,0.5,-6.0,0.0,0.0,1
12.0,0.0,5.0,1,12.0,562,1,120,1,0,0,0,32,4,0.5,6.0,1.0,-24.0,0
9.0,-13.5,0.0,0,0.0,797,1,121,1,0,0,0,32,4,0.5,-2.25,1.0,12.0,0
6.0,-1.5,0.0,1,6.0,517,1,122,1,0,0,0,32,4,0.5,2.25,0.0,0.0,1
2.0,-3.0,0.0,0,0.0,837,1,123,1,0,0,0,32,4,0.5,-0.5,1.0,6.0,0
10.0,-2.5,0.0,1,-2.5,566,1,124,1,0,0,0,32,4,0.5,3.75,0.0,0.0,1
2.0,-0.75,0.0,0,0.0,497,1,125,1,0,0,0,32,4,0.5,0.625,1.0,-2.5,0
6.0,-10.5,0.0,0,0.0,541,1,126,1,0,0,0,32,4,0.5,-2.25,0.0,0.0,1
2.0,-0.5,0.0,1,2.0,715,1,127,1,0,0,0,32,4,0.5,0.75,0.0,0.0,2
10.0,-10.0,0.0,0,0.0,696,1,128,1,0,0,0,32,4,0.5,0.0,1.0,2.0,0
8.0,-10.0,0.0,1,-10.0,663,1,129,1,0,0,0,32,4,0.5,-1.0,0.0,0.0,1
9.0,-12.38,0.0,0,0.0,663,1,130,1,0,0,0,32,4,0.5,-1.6900000000000004,1.0,-10.0,0
4.0,-6.0,0.0,0,0.0,589,1,131,1,0,0,0,32,4,0.5,-1.0,0.0,0.0,1
6.0,-2.25,0.0,1,6.0,589,1,132,1,0,0,0,32,4,0.5,1.875,0.0,0.0,2
9.0,-15.75,0.0,0,0.0,695,1,133,1,0,0,0,32,4,0.5,-3.375,1.0,6.0,0
12.0,-13.5,0.0,0,0.0,591,1,134,1,0,0,0,32,4,0.5,-0.75,0.0,0.0,1
8.0,-6.0,0.0,0,0.0,771,1,135,1,0,0,0,32,4,0.5,1.0,0.0,0.0,2
10.0,-18.75,0.0,0,0.0,641,1,136,1,0,0,0,32,4,0.5,-4.375,0.0,0.0,3
4.0,-2.0,0.0,0,0.0,721,1,137,1,0,0,0,32,4,0.5,1.0,0.0,0.0,4
5.0,-1.25,0.0,1,-1.25,499,1,138,1,0,0,0,32,4,0.5,1.875,0.0,0.0,5
6.0,-5.25,0.0,0,0.0,598,1,139,1,0,0,0,32,4,0.5,0.375,1.0,-1.25,0
4.0,-8.0,0.0,1,4.0,1102,1,140,1,0,0,0,32,4,0.5,-2.0,0.0,0.0,1
4.0,-6.5,0.0,1,-6.5,586,1,141,1,1,0,0,32,4,0.5,-1.25,1.0,4.0,0
9.0,-12.38,0.0,0,0.0,673,1,142,1,1,0,0,32,4,0.5,-1.6900000000000004,1.0,-6.5,0
10.0,-13.75,0.0,1,-13.75,588,1,143,1,1,0,0,32,4,0.5,-1.875,0.0,0.0,1
10.0,-17.5,0.0,0,0.0,697,1,144,1,1,0,0,32,4,0.5,-3.75,1.0,-13.75,0
4.0,-5.0,0.0,1,4.0,476,1,145,1,1,0,0,32,4,0.5,-0.5,0.0,0.0,1
9.0,-11.25,0.0,1,9.0,713,1,146,1,1,0,0,32,4,0.5,-1.125,1.0,4.0,0
10.0,-10.0,0.0,0,0.0,497,1,147,1,1,0,0,32,4,0.5,0.0,1.0,9.0,0
2.0,-3.25,0.0,0,0.0,862,1,148,1,1,0,0,32,4,0.5,-0.625,0.0,0.0,1
5.0,-8.75,0.0,1,5.0,410,1,149,1,1,0,0,32,4,0.5,-1.875,0.0,0.0,2
5.0,-10.0,0.0,0,0.0,581,1,150,1,1,0,0,32,4,0.5,-2.5,1.0,5.0,0
9.0,-2.25,0.0,1,-2.25,500,1,151,1,1,0,0,32,4,0.5,3.375,0.0,0.0,1
6.0,-6.75,0.0,1,6.0,699,1,152,1,1,0,0,32,4,0.5,-0.375,1.0,-2.25,0
12.0,-16.5,0.0,1,12.0,916,1,153,1,1,0,0,32,4,0.5,-2.25,1.0,6.0,0
9.0,-14.63,0.0,0,0.0,765,1,154,1,1,0,0,32,4,0.5,-2.8150000000000004,1.0,12.0,0
4.0,-8.0,0.0,0,0.0,419,1,155,1,1,0,0,32,4,0.5,-2.0,0.0,0.0,1
6.0,-5.25,0.0,1,6.0,549,1,156,1,1,0,0,32,4,0.5,0.375,0.0,0.0,2
9.0,-6.75,0.0,1,-6.75,777,1,157,1,1,0,0,32,4,0.5,1.125,1.0,6.0,0
12.0,-12.0,0.0,1,-12.0,381,1,158,1,1,0,0,32,4,0.5,0.0,1.0,-6.75,0
4.0,-1.0,0.0,1,4.0,444,1,159,1,1,0,0,32,4,0.5,1.5,1.0,-12.0,0
12.0,-15.0,0.0,1,-15.0,396,1,160,1,1,0,0,32,4,0.5,-1.5,1.0,4.0,0
25.0,0.0,9.0,1,25.0,672,1,161,1,0,0,0,32,4,0.5,12.5,1.0,-15.0,0
2.0,-3.25,0.0,0,0.0,1067,1,162,1,0,0,0,32,4,0.5,-0.625,1.0,25.0,0
10.0,-11.25,0.0,1,-11.25,1165,1,163,1,0,0,0,32,4,0.5,-0.625,0.0,0.0,1
4.0,-7.5,0.0,0,0.0,670,1,164,1,0,0,0,32,4,0.5,-1.75,1.0,-11.25,0
9.0,-5.63,0.0,1,-5.63,508,1,165,1,0,0,0,32,4,0.5,1.685,0.0,0.0,1
6.0,-6.75,0.0,0,0.0,638,1,166,1,0,0,0,32,4,0.5,-0.375,1.0,-5.63,0
8.0,-2.0,0.0,1,-2.0,722,1,167,1,0,0,0,32,4,0.5,3.0,0.0,0.0,1
5.0,-6.25,0.0,0,0.0,837,1,168,1,0,0,0,32,4,0.5,-0.625,1.0,-2.0,0
23.0,0.0,10.0,0,10.0,575,1,169,1,0,0,0,32,4,0.5,11.5,0.0,0.0,1
8.0,-13.0,0.0,0,0.0,961,1,170,1,0,0,0,32,4,0.5,-2.5,0.0,10.0,2
10.0,-13.75,0.0,0,0.0,641,1,171,1,0,0,0,32,4,0.5,-1.875,0.0,0.0,3
5.0,-10.0,0.0,1,5.0,753,1,172,1,0,0,0,32,4,0.5,-2.5,0.0,0.0,4
12.0,0.0,4.0,1,12.0,640,1,173,1,0,0,0,32,4,0.5,6.0,1.0,5.0,0
2.0,-2.5,0.0,0,0.0,772,1,174,1,0,0,0,32,4,0.5,-0.25,1.0,12.0,0
19.0,0.0,8.0,1,19.0,550,1,175,1,0,0,0,32,4,0.5,9.5,0.0,0.0,1
4.0,-4.0,0.0,0,0.0,1059,1,176,1,0,0,0,32,4,0.5,0.0,1.0,19.0,0
4.0,-1.0,0.0,1,-1.0,420,1,177,1,0,0,0,32,4,0.5,1.5,0.0,0.0,1
4.0,-2.5,0.0,1,-2.5,824,1,178,1,0,0,0,32,4,0.5,0.75,1.0,-1.0,0
5.0,-8.13,0.0,0,0.0,608,1,179,1,0,0,0,32,4,0.5,-1.5650000000000004,1.0,-2.5,0
10.0,-3.75,0.0,1,10.0,618,1,180,1,0,0,0,32,4,0.5,3.125,0.0,0.0,1
4.0,-3.5,0.0,1,-3.5,722,1,181,1,1,0,0,32,4,0.5,0.25,1.0,10.0,0
2.0,-1.25,0.0,1,-1.25,538,1,182,1,1,0,0,32,4,0.5,0.375,1.0,-3.5,0
30.0,0.0,12.0,0,12.0,539,1,183,1,1,0,0,32,4,0.5,15.0,1.0,-1.25,0
12.0,-19.5,0.0,1,12.0,831,1,184,1,1,0,0,32,4,0.5,-3.75,0.0,12.0,1
12.0,-3.0,0.0,1,12.0,713,1,185,1,1,0,0,32,4,0.5,4.5,1.0,12.0,0
5.0,-1.25,0.0,0,0.0,790,1,186,1,1,0,0,32,4,0.5,1.875,1.0,12.0,0
5.0,-1.88,0.0,1,-1.88,564,1,187,1,1,0,0,32,4,0.5,1.56,0.0,0.0,1
2.0,-3.5,0.0,0,0.0,930,1,188,1,1,0,0,32,4,0.5,-0.75,1.0,-1.88,0
12.0,-9.0,0.0,1,-9.0,443,1,189,1,1,0,0,32,4,0.5,1.5,0.0,0.0,1
10.0,-20.0,0.0,0,0.0,511,1,190,1,1,0,0,32,4,0.5,-5.0,1.0,-9.0,0
8.0,-4.0,0.0,1,-4.0,578,1,191,1,1,0,0,32,4,0.5,2.0,0.0,0.0,1
12.0,0.0,5.0,1,0.0,849,1,192,1,1,0,0,32,4,0.5,6.0,1.0,-4.0,0
2.0,0.0,1.0,0,1.0,472,1,193,1,1,0,0,32,4,0.5,1.0,1.0,0.0,0
4.0,-1.5,0.0,1,4.0,769,1,194,1,1,0,0,32,4,0.5,1.25,0.0,1.0,1
2.0,-3.75,0.0,0,0.0,910,1,195,1,1,0,0,32,4,0.5,-0.875,1.0,4.0,0
6.0,-10.5,0.0,1,-10.5,621,1,196,1,1,0,0,32,4,0.5,-2.25,0.0,0.0,1
4.0,-2.0,0.0,1,-2.0,501,1,197,1,1,0,0,32,4,0.5,1.0,1.0,-10.5,0
23.0,0.0,10.0,1,0.0,554,1,198,1,1,0,0,32,4,0.5,11.5,1.0,-2.0,0
12.0,-18.0,0.0,1,12.0,793,1,199,1,1,0,0,32,4,0.5,-3.0,1.0,0.0,0
6.0,-8.25,0.0,0,0.0,643,1,200,1,1,0,0,32,4,0.5,-1.125,1.0,12.0,0
5.0,-8.75,0.0,0,0.0,556,1,201,1,0,0,0,32,4,0.5,-1.875,0.0,0.0,1
10.0,-7.5,0.0,1,-7.5,556,1,202,1,0,0,0,32,4,0.5,1.25,0.0,0.0,2
10.0,-5.0,0.0,1,-5.0,531,1,203,1,0,0,0,32,4,0.5,2.5,1.0,-7.5,0
10.0,-20.0,0.0,0,0.0,733,1,204,1,0,0,0,32,4,0.5,-5.0,1.0,-5.0,0
13.0,0.0,5.0,0,5.0,568,1,205,1,0,0,0,32,4,0.5,6.5,0.0,0.0,1
8.0,-9.0,0.0,0,0.0,421,1,206,1,0,0,0,32,4,0.5,-0.5,0.0,5.0,2
8.0,-12.0,0.0,0,0.0,688,1,207,1,0,0,0,32,4,0.5,-2.0,0.0,0.0,3
10.0,-16.25,0.0,0,0.0,601,1,208,1,0,0,0,32,4,0.5,-3.125,0.0,0.0,4
5.0,-6.88,0.0,1,5.0,1240,1,209,1,0,0,0,32,4,0.5,-0.94,0.0,0.0,5
4.0,-5.5,0.0,0,0.0,876,1,210,1,0,0,0,32,4,0.5,-0.75,1.0,5.0,0
26.0,0.0,10.0,1,26.0,507,1,211,1,1,0,0,32,4,0.5,13.0,0.0,0.0,1
10.0,-8.75,0.0,1,-8.75,565,1,212,1,1,0,0,32,4,0.5,0.625,1.0,26.0,0
2.0,-0.75,0.0,1,2.0,527,1,213,1,1,0,0,32,4,0.5,0.625,1.0,-8.75,0
5.0,-9.38,0.0,1,-9.38,385,1,214,1,1,0,0,32,4,0.5,-2.1900000000000004,1.0,2.0,0
25.0,0.0,9.0,1,0.0,1315,1,215,1,1,0,0,32,4,0.5,12.5,1.0,-9.38,0
9.0,-4.5,0.0,0,0.0,1250,1,216,1,1,0,0,32,4,0.5,2.25,1.0,0.0,0
10.0,-5.0,0.0,1,10.0,623,1,217,1,1,0,0,32,4,0.5,2.5,0.0,0.0,1
2.0,-4.0,0.0,0,0.0,1078,1,218,1,1,0,0,32,4,0.5,-1.0,1.0,10.0,0
2.0,-2.75,0.0,1,-2.75,557,1,219,1,1,0,0,32,4,0.5,-0.375,0.0,0.0,1
4.0,-6.0,0.0,0,0.0,837,1,220,1,1,0,0,32,4,0.5,-1.0,1.0,-2.75,0
5.0,-7.5,0.0,0,0.0,813,1,221,1,0,0,0,32,4,0.5,-1.25,0.0,0.0,1
9.0,-10.13,0.0,0,0.0,588,1,222,1,0,0,0,32,4,0.5,-0.5650000000000004,0.0,0.0,2
6.0,-8.25,0.0,0,0.0,875,1,223,1,0,0,0,32,4,0.5,-1.125,0.0,0.0,3
26.0,0.0,10.0,0,10.0,887,1,224,1,0,0,0,32,4,0.5,13.0,0.0,0.0,4
4.0,-5.0,0.0,0,0.0,922,1,225,1,0,0,0,32,4,0.5,-0.5,0.0,10.0,5
2.0,-2.25,0.0,1,2.0,559,1,226,1,0,0,0,32,4,0.5,-0.125,0.0,0.0,6
6.0,-3.75,0.0,1,-3.75,529,1,227,1,0,0,0,32,4,0.5,1.125,1.0,2.0,0
8.0,-8.0,0.0,1,8.0,978,1,228,1,0,0,0,32,4,0.5,0.0,1.0,-3.75,0
9.0,-6.75,0.0,0,0.0,480,1,229,1,0,0,0,32,4,0.5,1.125,1.0,8.0,0
8.0,-15.0,0.0,1,-15.0,1741,1,230,1,0,0,0,32,4,0.5,-3.5,0.0,0.0,1
12.0,-6.0,0.0,1,-6.0,1017,1,231,1,0,0,0,32,4,0.5,3.0,1.0,-15.0,0
25.0,0.0,10.0,0,10.0,1169,1,232,1,0,0,0,32,4,0.5,12.5,1.0,-6.0,0
12.0,-19.5,0.0,0,0.0,578,1,233,1,0,0,0,32,4,0.5,-3.75,0.0,10.0,1
9.0,-7.88,0.0,0,0.0,726,1,234,1,0,0,0,32,4,0.5,0.56,0.0,0.0,2
4.0,-1.5,0.0,1,4.0,783,1,235,1,0,0,0,32,4,0.5,1.25,0.0,0.0,3
8.0,-7.0,0.0,0,0.0,692,1,236,1,0,0,0,32,4,0.5,0.5,1.0,4.0,0
12.0,-18.0,0.0,1,-18.0,547,1,237,1,0,0,0,32,4,0.5,-3.0,0.0,0.0,1
2.0,-2.0,0.0,1,2.0,404,1,238,1,0,0,0,32,4,0.5,0.0,1.0,-18.0,0
9.0,-18.0,0.0,0,0.0,1161,1,239,1,0,0,0,32,4,0.5,-4.5,1.0,2.0,0
2.0,-1.25,0.0,0,0.0,643,1,240,1,0,0,0,32,4,0.5,0.375,0.0,0.0,1
10.0,-12.5,0.0,1,-12.5,637,1,241,1,1,0,0,32,4,0.5,-1.25,0.0,0.0,2
12.0,-22.5,0.0,0,0.0,685,1,242,1,1,0,0,32,4,0.5,-5.25,1.0,-12.5,0
4.0,-4.0,0.0,1,4.0,650,1,243,1,1,0,0,32,4,0.5,0.0,0.0,0.0,1
2.0,-0.5,0.0,1,-0.5,507,1,244,1,1,0,0,32,4,0.5,0.75,1.0,4.0,0
8.0,-2.0,0.0,1,-2.0,430,1,245,1,1,0,0,32,4,0.5,3.0,1.0,-0.5,0
4.0,-3.0,0.0,0,0.0,778,1,246,1,1,0,0,32,4,0.5,0.5,1.0,-2.0,0
6.0,-11.25,0.0,1,6.0,379,1,247,1,1,0,0,32,4,0.5,-2.625,0.0,0.0,1
8.0,-15.0,0.0,1,-15.0,1151,1,248,1,1,0,0,32,4,0.5,-3.5,1.0,6.0,0
8.0,-11.0,0.0,0,0.0,391,1,249,1,1,0,0,32,4,0.5,-1.5,1.0,-15.0,0
12.0,-4.5,0.0,1,-4.5,423,1,250,1,1,0,0,32,4,0.5,3.75,0.0,0.0,1
8.0,-16.0,0.0,0,0.0,718,1,251,1,0,0,0,32,4,0.5,-4.0,1.0,-4.5,0
5.0,-4.38,0.0,0,0.0,546,1,252,1,0,0,0,32,4,0.5,0.31,0.0,0.0,1
2.0,-4.0,0.0,0,0.0,440,1,253,1,0,0,0,32,4,0.5,-1.0,0.0,0.0,2
5.0,-5.63,0.0,0,0.0,741,1,254,1,0,0,0,32,4,0.5,-0.3149999999999999,0.0,0.0,3
8.0,0.0,3.0,1,0.0,481,1,255,1,0,0,0,32,4,0.5,4.0,0.0,0.0,4
10.0,-17.5,0.0,0,0.0,570,1,256,1,0,0,0,32,4,0.5,-3.75,1.0,0.0,0
8.0,-11.0,0.0,0,0.0,507,1,257,1,0,0,0,32,4,0.5,-1.5,0.0,0.0,1
2.0,-1.5,0.0,1,2.0,855,1,258,1,0,0,0,32,4,0.5,0.25,0.0,0.0,2
4.0,-3.5,0.0,0,0.0,1391,1,259,1,0,0,0,32,4,0.5,0.25,1.0,2.0,0
2.0,-3.75,0.0,0,0.0,729,1,260,1,0,0,0,32,4,0.5,-0.875,0.0,0.0,1
19.0,0.0,8.0,1,19.0,584,1,261,1,1,0,0,32,4,0.5,9.5,0.0,0.0,2
6.0,-6.0,0.0,1,-6.0,485,1,262,1,1,0,0,32,4,0.5,0.0,1.0,19.0,0
5.0,-4.38,0.0,0,0.0,596,1,263,1,1,0,0,32,4,0.5,0.31,1.0,-6.0,0
9.0,-9.0,0.0,1,9.0,557,1,264,1,1,0,0,32,4,0.5,0.0,0.0,0.0,1
6.0,-1.5,0.0,1,-1.5,604,1,265,1,1,0,0,32,4,0.5,2.25,1.0,9.0,0
9.0,-13.5,0.0,0,0.0,864,1,266,1,1,0,0,32,4,0.5,-2.25,1.0,-1.5,0
9.0,-5.63,0.0,1,-5.63,573,1,267,1,1,0,0,32,4,0.5,1.685,0.0,0.0,1
8.0,-8.0,0.0,1,-8.0,564,1,268,1,1,0,0,32,4,0.5,0.0,1.0,-5.63,0
8.0,0.0,3.0,0,3.0,454,1,269,1,1,0,0,32,4,0.5,4.0,1.0,-8.0,0
8.0,-3.0,0.0,0,0.0,577,1,270,1,1,0,0,32,4,0.5,2.5,0.0,3.0,1
3.0,0.0,1.0,1,0.0,803,1,271,1,0,0,0,32,4,0.5,1.5,0.0,0.0,2
12.0,-21.0,0.0,0,0.0,447,1,272,1,0,0,0,32,4,0.5,-4.5,1.0,0.0,0
10.0,-8.75,0.0,0,0.0,1159,1,273,1,0,0,0,32,4,0.5,0.625,0.0,0.0,1
9.0,-9.0,0.0,1,-9.0,717,1,274,1,0,0,0,32,4,0.5,0.0,0.0,0.0,2
4.0,-3.0,0.0,0,0.0,701,1,275,1,0,0,0,32,4,0.5,0.5,1.0,-9.0,0
7.0,0.0,3.0,1,7.0,1276,1,276,1,0,0,0,32,4,0.5,3.5,0.0,0.0,1
9.0,-3.38,0.0,1,-3.38,793,1,277,1,0,0,0,32,4,0.5,2.81,1.0,7.0,0
9.0,-2.25,0.0,1,-2.25,392,1,278,1,0,0,0,32,4,0.5,3.375,1.0,-3.38,0
10.0,-6.25,0.0,0,0.0,954,1,279,1,0,0,0,32,4,0.5,1.875,1.0,-2.25,0
9.0,-4.5,0.0,1,-4.5,1045,1,280,1,0,0,0,32,4,0.5,2.25,0.0,0.0,1
9.0,-11.25,0.0,1,9.0,374,1,1,1,1,0,0,33,5,0.5,-1.125,,,0
8.0,-16.0,0.0,0,0.0,302,1,2,1,1,0,0,33,5,0.5,-4.0,1.0,9.0,0
9.0,-5.63,0.0,0,0.0,281,1,3,1,1,0,0,33,5,0.5,1.685,0.0,0.0,1
9.0,-4.5,0.0,1,9.0,309,1,4,1,1,0,0,33,5,0.5,2.25,0.0,0.0,2
2.0,-2.0,0.0,1,2.0,272,1,5,1,1,0,0,33,5,0.5,0.0,1.0,9.0,0
12.0,-19.5,0.0,0,0.0,277,1,6,1,1,0,0,33,5,0.5,-3.75,1.0,2.0,0
4.0,-4.5,0.0,0,0.0,327,1,7,1,1,0,0,33,5,0.5,-0.25,0.0,0.0,1
2.0,-3.75,0.0,1,-3.75,309,1,8,1,1,0,0,33,5,0.5,-0.875,0.0,0.0,2
2.0,-2.25,0.0,0,0.0,237,1,9,1,1,0,0,33,5,0.5,-0.125,1.0,-3.75,0
12.0,-4.5,0.0,1,-4.5,290,1,10,1,1,0,0,33,5,0.5,3.75,0.0,0.0,1
2.0,-1.0,0.0,1,2.0,288,1,11,1,0,0,0,33,5,0.5,0.5,1.0,-4.5,0
9.0,-13.5,0.0,0,0.0,315,1,12,1,0,0,0,33,5,0.5,-2.25,1.0,2.0,0
5.0,-6.88,0.0,1,5.0,475,1,13,1,0,0,0,33,5,0.5,-0.94,0.0,0.0,1
10.0,-10.0,0.0,1,10.0,359,1,14,1,0,0,0,33,5,0.5,0.0,1.0,5.0,0
6.0,-2.25,0.0,0,0.0,314,1,15,1,0,0,0,33,5,0.5,1.875,1.0,10.0,0
6.0,-6.75,0.0,1,-6.75,383,1,16,1,0,0,0,33,5,0.5,-0.375,0.0,0.0,1
9.0,-4.5,0.0,0,0.0,304,1,17,1,0,0,0,33,5,0.5,2.25,1.0,-6.75,0
10.0,-13.75,0.0,0,0.0,275,1,18,1,0,0,0,33,5,0.5,-1.875,0.0,0.0,1
6.0,-8.25,0.0,0,0.0,356,1,19,1,0,0,0,33,5,0.5,-1.125,0.0,0.0,2
5.0,-10.0,0.0,0,0.0,348,1,20,1,0,0,0,33,5,0.5,-2.5,0.0,0.0,3
10.0,-6.25,0.0,1,10.0,262,1,21,1,0,0,0,33,5,0.5,1.875,0.0,0.0,4
12.0,-3.0,0.0,1,-3.0,319,1,22,1,0,0,0,33,5,0.5,4.5,1.0,10.0,0
12.0,-9.0,0.0,0,0.0,421,1,23,1,0,0,0,33,5,0.5,1.5,1.0,-3.0,0
8.0,-7.0,0.0,1,-7.0,260,1,24,1,0,0,0,33,5,0.5,0.5,0.0,0.0,1
6.0,-12.0,0.0,0,0.0,246,1,25,1,0,0,0,33,5,0.5,-3.0,1.0,-7.0,0
8.0,-2.0,0.0,1,-2.0,316,1,26,1,0,0,0,33,5,0.5,3.0,0.0,0.0,1
12.0,-6.0,0.0,1,-6.0,315,1,27,1,0,0,0,33,5,0.5,3.0,1.0,-2.0,0
3.0,0.0,1.0,1,0.0,326,1,28,1,0,0,0,33,5,0.5,1.5,1.0,-6.0,0
10.0,-20.0,0.0,1,10.0,318,1,29,1,0,0,0,33,5,0.5,-5.0,1.0,0.0,0
5.0,-3.75,0.0,1,5.0,363,1,30,1,0,0,0,33,5,0.5,0.625,1.0,10.0,0
2.0,-1.75,0.0,0,0.0,240,1,31,1,0,0,0,33,5,0.5,0.125,1.0,5.0,0
6.0,-3.75,0.0,0,0.0,332,1,32,1,0,0,0,33,5,0.5,1.125,0.0,0.0,1
9.0,-12.38,0.0,0,0.0,290,1,33,1,0,0,0,33,5,0.5,-1.6900000000000004,0.0,0.0,2
5.0,-6.25,0.0,0,0.0,294,1,34,1,0,0,0,33,5,0.5,-0.625,0.0,0.0,3
12.0,0.0,4.0,0,4.0,232,1,35,1,0,0,0,33,5,0.5,6.0,0.0,0.0,4
2.0,-1.5,0.0,1,2.0,281,1,36,1,0,0,0,33,5,0.5,0.25,0.0,4.0,5
6.0,-5.25,0.0,0,0.0,304,1,37,1,0,0,0,33,5,0.5,0.375,1.0,2.0,0
10.0,-18.75,0.0,0,0.0,324,1,38,1,0,0,0,33,5,0.5,-4.375,0.0,0.0,1
6.0,-6.0,0.0,1,-6.0,276,1,39,1,0,0,0,33,5,0.5,0.0,0.0,0.0,2
12.0,0.0,5.0,0,5.0,443,1,40,1,0,0,0,33,5,0.5,6.0,1.0,-6.0,0
9.0,-10.13,0.0,0,0.0,254,1,41,1,1,0,0,33,5,0.5,-0.5650000000000004,0.0,5.0,1
12.0,-3.0,0.0,1,12.0,275,1,42,1,1,0,0,33,5,0.5,4.5,0.0,0.0,2
10.0,-17.5,0.0,0,0.0,266,1,43,1,1,0,0,33,5,0.5,-3.75,1.0,12.0,0
5.0,-4.38,0.0,1,-4.38,288,1,44,1,1,0,0,33,5,0.5,0.31,0.0,0.0,1
5.0,-7.5,0.0,1,5.0,302,1,45,1,1,0,0,33,5,0.5,-1.25,1.0,-4.38,0
6.0,-11.25,0.0,0,0.0,456,1,46,1,1,0,0,33,5,0.5,-2.625,1.0,5.0,0
2.0,-1.5,0.0,1,-1.5,405,1,47,1,1,0,0,33,5,0.5,0.25,0.0,0.0,1
9.0,-6.75,0.0,1,-6.75,425,1,48,1,1,0,0,33,5,0.5,1.125,1.0,-1.5,0
4.0,-7.0,0.0,1,-7.0,308,1,49,1,1,0,0,33,5,0.5,-1.5,1.0,-6.75,0
8.0,-7.0,0.0,1,8.0,345,1,50,1,1,0,0,33,5,0.5,0.5,1.0,-7.0,0
2.0,-1.75,0.0,0,0.0,239,1,51,1,1,0,0,33,5,0.5,0.125,1.0,8.0,0
2.0,-1.0,0.0,1,2.0,238,1,52,1,1,0,0,33,5,0.5,0.5,0.0,0.0,1
10.0,-6.25,0.0,1,-6.25,304,1,53,1,1,0,0,33,5,0.5,1.875,1.0,2.0,0
6.0,-6.75,0.0,1,6.0,547,1,54,1,1,0,0,33,5,0.5,-0.375,1.0,-6.25,0
9.0,-2.25,0.0,1,-2.25,509,1,55,1,1,0,0,33,5,0.5,3.375,1.0,6.0,0
2.0,-0.75,0.0,1,2.0,279,1,56,1,1,0,0,33,5,0.5,0.625,1.0,-2.25,0
12.0,0.0,4.0,0,4.0,523,1,57,1,1,0,0,33,5,0.5,6.0,1.0,2.0,0
6.0,-3.0,0.0,1,-3.0,481,1,58,1,1,0,0,33,5,0.5,1.5,0.0,4.0,1
3.0,0.0,1.0,1,3.0,279,1,59,1,1,0,0,33,5,0.5,1.5,1.0,-3.0,0
2.0,-3.0,0.0,0,0.0,267,1,60,1,1,0,0,33,5,0.5,-0.5,1.0,3.0,0
4.0,-2.0,0.0,1,4.0,234,1,61,1,0,0,0,33,5,0.5,1.0,0.0,0.0,1
2.0,-4.0,0.0,0,0.0,350,1,62,1,0,0,0,33,5,0.5,-1.0,1.0,4.0,0
5.0,-2.5,0.0,1,5.0,245,1,63,1,0,0,0,33,5,0.5,1.25,0.0,0.0,1
2.0,-3.75,0.0,0,0.0,337,1,64,1,0,0,0,33,5,0.5,-0.875,1.0,5.0,0
9.0,-15.75,0.0,0,0.0,251,1,65,1,0,0,0,33,5,0.5,-3.375,0.0,0.0,1
8.0,-4.0,0.0,1,8.0,324,1,66,1,0,0,0,33,5,0.5,2.0,0.0,0.0,2
26.0,0.0,12.0,0,12.0,331,1,67,1,0,0,0,33,5,0.5,13.0,1.0,8.0,0
6.0,-1.5,0.0,1,6.0,641,1,68,1,0,0,0,33,5,0.5,2.25,0.0,12.0,1
4.0,-6.0,0.0,0,0.0,276,1,69,1,0,0,0,33,5,0.5,-1.0,1.0,6.0,0
10.0,-2.5,0.0,1,-2.5,273,1,70,1,0,0,0,33,5,0.5,3.75,0.0,0.0,1
8.0,-12.0,0.0,0,0.0,259,1,71,1,0,0,0,33,5,0.5,-2.0,1.0,-2.5,0
2.0,-3.5,0.0,0,0.0,345,1,72,1,0,0,0,33,5,0.5,-0.75,0.0,0.0,1
5.0,-5.63,0.0,1,-5.63,347,1,73,1,0,0,0,33,5,0.5,-0.3149999999999999,0.0,0.0,2
12.0,-24.0,0.0,0,0.0,241,1,74,1,0,0,0,33,5,0.5,-6.0,1.0,-5.63,0
25.0,0.0,10.0,0,10.0,273,1,75,1,0,0,0,33,5,0.5,12.5,0.0,0.0,1
4.0,-6.5,0.0,0,0.0,344,1,76,1,0,0,0,33,5,0.5,-1.25,0.0,10.0,2
5.0,-9.38,0.0,0,0.0,661,1,77,1,0,0,0,33,5,0.5,-2.1900000000000004,0.0,0.0,3
5.0,-7.5,0.0,1,-7.5,226,1,78,1,0,0,0,33,5,0.5,-1.25,0.0,0.0,4
4.0,-4.0,0.0,1,-4.0,251,1,79,1,0,0,0,33,5,0.5,0.0,1.0,-7.5,0
6.0,-10.5,0.0,1,-10.5,292,1,80,1,0,0,0,33,5,0.5,-2.25,1.0,-4.0,0
10.0,-13.75,0.0,0,0.0,248,1,81,1,1,0,0,33,5,0.5,-1.875,1.0,-10.5,0
6.0,-2.25,0.0,1,6.0,260,1,82,1,1,0,0,33,5,0.5,1.875,0.0,0.0,1
5.0,-1.88,0.0,1,-1.88,228,1,83,1,1,0,0,33,5,0.5,1.56,1.0,6.0,0
12.0,-13.5,0.0,0,0.0,275,1,84,1,1,0,0,33,5,0.5,-0.75,1.0,-1.88,0
22.0,0.0,10.0,0,10.0,348,1,85,1,1,0,0,33,5,0.5,11.0,0.0,0.0,1
9.0,-12.38,0.0,0,0.0,295,1,86,1,1,0,0,33,5,0.5,-1.6900000000000004,0.0,10.0,2
26.0,0.0,10.0,0,10.0,307,1,87,1,1,0,0,33,5,0.5,13.0,0.0,0.0,3
12.0,-10.5,0.0,0,0.0,268,1,88,1,1,0,0,33,5,0.5,0.75,0.0,10.0,4
10.0,-2.5,0.0,1,-2.5,367,1,89,1,1,0,0,33,5,0.5,3.75,0.0,0.0,5
25.0,0.0,10.0,0,10.0,370,1,90,1,1,0,0,33,5,0.5,12.5,1.0,-2.5,0
13.0,0.0,6.0,1,13.0,298,1,91,1,0,0,0,33,5,0.5,6.5,0.0,10.0,1
12.0,-22.5,0.0,0,0.0,297,1,92,1,0,0,0,33,5,0.5,-5.25,1.0,13.0,0
4.0,-7.5,0.0,0,0.0,243,1,93,1,0,0,0,33,5,0.5,-1.75,0.0,0.0,1
5.0,0.0,2.0,1,5.0,250,1,94,1,0,0,0,33,5,0.5,2.5,0.0,0.0,2
10.0,-15.0,0.0,0,0.0,471,1,95,1,0,0,0,33,5,0.5,-2.5,1.0,5.0,0
9.0,-16.88,0.0,0,0.0,289,1,96,1,0,0,0,33,5,0.5,-3.939999999999999,0.0,0.0,1
2.0,-2.5,0.0,1,2.0,249,1,97,1,0,0,0,33,5,0.5,-0.25,0.0,0.0,2
10.0,-16.25,0.0,0,0.0,241,1,98,1,0,0,0,33,5,0.5,-3.125,1.0,2.0,0
6.0,-11.25,0.0,0,0.0,278,1,99,1,0,0,0,33,5,0.5,-2.625,0.0,0.0,1
4.0,-1.5,0.0,1,4.0,289,1,100,1,0,0,0,33,5,0.5,1.25,0.0,0.0,2
9.0,-15.75,0.0,0,0.0,376,1,101,1,1,0,0,33,5,0.5,-3.375,1.0,4.0,0
7.0,0.0,3.0,0,3.0,285,1,102,1,1,0,0,33,5,0.5,3.5,0.0,0.0,1
10.0,-10.0,0.0,0,0.0,274,1,103,1,1,0,0,33,5,0.5,0.0,0.0,3.0,2
12.0,-15.0,0.0,0,0.0,283,1,104,1,1,0,0,33,5,0.5,-1.5,0.0,0.0,3
12.0,0.0,6.0,0,6.0,298,1,105,1,1,0,0,33,5,0.5,6.0,0.0,0.0,4
6.0,-4.5,0.0,0,0.0,422,1,106,1,1,0,0,33,5,0.5,0.75,0.0,6.0,5
8.0,-13.0,0.0,0,0.0,235,1,107,1,1,0,0,33,5,0.5,-2.5,0.0,0.0,6
10.0,-16.25,0.0,0,0.0,451,1,108,1,1,0,0,33,5,0.5,-3.125,0.0,0.0,7
5.0,-1.25,0.0,1,5.0,344,1,109,1,1,0,0,33,5,0.5,1.875,0.0,0.0,8
4.0,-4.0,0.0,1,4.0,348,1,110,1,1,0,0,33,5,0.5,0.0,1.0,5.0,0
5.0,-3.13,0.0,1,5.0,315,1,111,1,0,0,0,33,5,0.5,0.935,1.0,4.0,0
6.0,-9.0,0.0,0,0.0,286,1,112,1,0,0,0,33,5,0.5,-1.5,1.0,5.0,0
12.0,-19.5,0.0,0,0.0,313,1,113,1,0,0,0,33,5,0.5,-3.75,0.0,0.0,1
10.0,-12.5,0.0,0,0.0,476,1,114,1,0,0,0,33,5,0.5,-1.25,0.0,0.0,2
2.0,-3.0,0.0,0,0.0,389,1,115,1,0,0,0,33,5,0.5,-0.5,0.0,0.0,3
8.0,-16.0,0.0,0,0.0,1620,1,116,1,0,0,0,33,5,0.5,-4.0,0.0,0.0,4
4.0,0.0,2.0,1,4.0,244,1,117,1,0,0,0,33,5,0.5,2.0,0.0,0.0,5
12.0,-7.5,0.0,0,0.0,232,1,118,1,0,0,0,33,5,0.5,2.25,1.0,4.0,0
12.0,-13.5,0.0,0,0.0,228,1,119,1,0,0,0,33,5,0.5,-0.75,0.0,0.0,1
22.0,0.0,10.0,0,10.0,311,1,120,1,0,0,0,33,5,0.5,11.0,0.0,0.0,2
5.0,-3.75,0.0,1,5.0,269,1,121,1,1,0,0,33,5,0.5,0.625,0.0,10.0,3
6.0,-8.25,0.0,0,0.0,672,1,122,1,1,0,0,33,5,0.5,-1.125,1.0,5.0,0
8.0,-15.0,0.0,0,0.0,276,1,123,1,1,0,0,33,5,0.5,-3.5,0.0,0.0,1
8.0,-8.0,0.0,1,-8.0,268,1,124,1,1,0,0,33,5,0.5,0.0,0.0,0.0,2
2.0,-2.75,0.0,1,-2.75,308,1,125,1,1,0,0,33,5,0.5,-0.375,1.0,-8.0,0
6.0,-12.0,0.0,1,-12.0,330,1,126,1,1,0,0,33,5,0.5,-3.0,1.0,-2.75,0
2.0,0.0,1.0,1,2.0,275,1,127,1,1,0,0,33,5,0.5,1.0,1.0,-12.0,0
2.0,-1.25,0.0,1,-1.25,314,1,128,1,1,0,0,33,5,0.5,0.375,1.0,2.0,0
9.0,-18.0,0.0,0,0.0,590,1,129,1,1,0,0,33,5,0.5,-4.5,1.0,-1.25,0
6.0,-9.0,0.0,0,0.0,349,1,130,1,1,0,0,33,5,0.5,-1.5,0.0,0.0,1
10.0,-8.75,0.0,1,-8.75,303,1,131,1,1,0,0,33,5,0.5,0.625,0.0,0.0,2
4.0,-7.5,0.0,0,0.0,292,1,132,1,1,0,0,33,5,0.5,-1.75,1.0,-8.75,0
13.0,0.0,6.0,1,0.0,268,1,133,1,1,0,0,33,5,0.5,6.5,0.0,0.0,1
10.0,-11.25,0.0,0,0.0,432,1,134,1,1,0,0,33,5,0.5,-0.625,1.0,0.0,0
4.0,-3.0,0.0,1,4.0,238,1,135,1,1,0,0,33,5,0.5,0.5,0.0,0.0,1
10.0,-5.0,0.0,1,10.0,362,1,136,1,1,0,0,33,5,0.5,2.5,1.0,4.0,0
8.0,-2.0,0.0,1,-2.0,311,1,137,1,1,0,0,33,5,0.5,3.0,1.0,10.0,0
4.0,-2.5,0.0,1,4.0,375,1,138,1,1,0,0,33,5,0.5,0.75,1.0,-2.0,0
2.0,-3.5,0.0,0,0.0,1128,1,139,1,1,0,0,33,5,0.5,-0.75,1.0,4.0,0
2.0,-2.5,0.0,0,0.0,242,1,140,1,1,0,0,33,5,0.5,-0.25,0.0,0.0,1
12.0,-21.0,0.0,0,0.0,256,1,141,1,0,0,0,33,5,0.5,-4.5,0.0,0.0,2
7.0,0.0,3.0,0,3.0,271,1,142,1,0,0,0,33,5,0.5,3.5,0.0,0.0,3
10.0,-8.75,0.0,1,-8.75,372,1,143,1,0,0,0,33,5,0.5,0.625,0.0,3.0,4
2.0,-1.25,0.0,1,2.0,283,1,144,1,0,0,0,33,5,0.5,0.375,1.0,-8.75,0
9.0,-6.75,0.0,1,-6.75,341,1,145,1,0,0,0,33,5,0.5,1.125,1.0,2.0,0
12.0,0.0,6.0,0,6.0,236,1,146,1,0,0,0,33,5,0.5,6.0,1.0,-6.75,0
28.0,0.0,13.0,0,13.0,419,1,147,1,0,0,0,33,5,0.5,14.0,0.0,6.0,1
9.0,-10.13,0.0,0,0.0,289,1,148,1,0,0,0,33,5,0.5,-0.5650000000000004,0.0,13.0,2
2.0,-0.5,0.0,1,2.0,340,1,149,1,0,0,0,33,5,0.5,0.75,0.0,0.0,3
25.0,0.0,9.0,0,9.0,296,1,150,1,0,0,0,33,5,0.5,12.5,1.0,2.0,0
6.0,-3.75,0.0,1,6.0,259,1,151,1,1,0,0,33,5,0.5,1.125,0.0,9.0,1
8.0,-3.0,0.0,1,8.0,261,1,152,1,1,0,0,33,5,0.5,2.5,1.0,6.0,0
2.0,-3.25,0.0,0,0.0,248,1,153,1,1,0,0,33,5,0.5,-0.625,1.0,8.0,0
8.0,-9.0,0.0,0,0.0,330,1,154,1,1,0,0,33,5,0.5,-0.5,0.0,0.0,1
6.0,-6.0,0.0,1,-6.0,212,1,155,1,1,0,0,33,5,0.5,0.0,0.0,0.0,2
8.0,-11.0,0.0,0,0.0,287,1,156,1,1,0,0,33,5,0.5,-1.5,1.0,-6.0,0
5.0,-8.75,0.0,1,5.0,272,1,157,1,1,0,0,33,5,0.5,-1.875,0.0,0.0,1
6.0,-9.75,0.0,0,0.0,349,1,158,1,1,0,0,33,5,0.5,-1.875,1.0,5.0,0
12.0,-24.0,0.0,0,0.0,241,1,159,1,1,0,0,33,5,0.5,-6.0,0.0,0.0,1
4.0,-6.5,0.0,0,0.0,492,1,160,1,1,0,0,33,5,0.5,-1.25,0.0,0.0,2
5.0,-10.0,0.0,0,0.0,250,1,161,1,1,0,0,33,5,0.5,-2.5,0.0,0.0,3
30.0,0.0,12.0,0,12.0,265,1,162,1,1,0,0,33,5,0.5,15.0,0.0,0.0,4
12.0,-18.0,0.0,0,0.0,399,1,163,1,1,0,0,33,5,0.5,-3.0,0.0,12.0,5
9.0,-9.0,0.0,1,9.0,283,1,164,1,1,0,0,33,5,0.5,0.0,0.0,0.0,6
5.0,-5.0,0.0,1,-5.0,262,1,165,1,1,0,0,33,5,0.5,0.0,1.0,9.0,0
5.0,-9.38,0.0,0,0.0,486,1,166,1,1,0,0,33,5,0.5,-2.1900000000000004,1.0,-5.0,0
10.0,-12.5,0.0,0,0.0,246,1,167,1,1,0,0,33,5,0.5,-1.25,0.0,0.0,1
10.0,-18.75,0.0,0,0.0,288,1,168,1,1,0,0,33,5,0.5,-4.375,0.0,0.0,2
5.0,-2.5,0.0,1,-2.5,238,1,169,1,1,0,0,33,5,0.5,1.25,0.0,0.0,3
9.0,-14.63,0.0,0,0.0,308,1,170,1,1,0,0,33,5,0.5,-2.8150000000000004,1.0,-2.5,0
6.0,-7.5,0.0,1,-7.5,235,1,171,1,0,0,0,33,5,0.5,-0.75,0.0,0.0,1
4.0,-3.0,0.0,1,4.0,294,1,172,1,0,0,0,33,5,0.5,0.5,1.0,-7.5,0
10.0,-3.75,0.0,1,10.0,351,1,173,1,0,0,0,33,5,0.5,3.125,1.0,4.0,0
12.0,-4.5,0.0,1,-4.5,426,1,174,1,0,0,0,33,5,0.5,3.75,1.0,10.0,0
12.0,-15.0,0.0,0,0.0,225,1,175,1,0,0,0,33,5,0.5,-1.5,1.0,-4.5,0
6.0,-3.0,0.0,1,6.0,296,1,176,1,0,0,0,33,5,0.5,1.5,0.0,0.0,1
9.0,-14.63,0.0,0,0.0,354,1,177,1,0,0,0,33,5,0.5,-2.8150000000000004,1.0,6.0,0
5.0,-1.25,0.0,1,-1.25,350,1,178,1,0,0,0,33,5,0.5,1.875,0.0,0.0,1
8.0,-11.0,0.0,0,0.0,363,1,179,1,0,0,0,33,5,0.5,-1.5,1.0,-1.25,0
10.0,-17.5,0.0,0,0.0,256,1,180,1,0,0,0,33,5,0.5,-3.75,0.0,0.0,1
28.0,0.0,13.0,0,13.0,260,1,181,1,1,0,0,33,5,0.5,14.0,0.0,0.0,2
5.0,-6.88,0.0,0,0.0,414,1,182,1,1,0,0,33,5,0.5,-0.94,0.0,13.0,3
4.0,-3.5,0.0,1,-3.5,354,1,183,1,1,0,0,33,5,0.5,0.25,0.0,0.0,4
12.0,-16.5,0.0,0,0.0,246,1,184,1,1,0,0,33,5,0.5,-2.25,1.0,-3.5,0
5.0,-8.13,0.0,0,0.0,351,1,185,1,1,0,0,33,5,0.5,-1.5650000000000004,0.0,0.0,1
9.0,-16.88,0.0,0,0.0,234,1,186,1,1,0,0,33,5,0.5,-3.939999999999999,0.0,0.0,2
9.0,-3.38,0.0,1,-3.38,296,1,187,1,1,0,0,33,5,0.5,2.81,0.0,0.0,3
12.0,0.0,5.0,1,0.0,394,1,188,1,1,0,0,33,5,0.5,6.0,1.0,-3.38,0
4.0,-8.0,0.0,0,0.0,582,1,189,1,1,0,0,33,5,0.5,-2.0,1.0,0.0,0
8.0,-12.0,0.0,1,8.0,277,1,190,1,1,0,0,33,5,0.5,-2.0,0.0,0.0,1
8.0,-10.0,0.0,0,0.0,350,1,191,1,0,0,0,33,5,0.5,-1.0,1.0,8.0,0
9.0,-9.0,0.0,0,0.0,331,1,192,1,0,0,0,33,5,0.5,0.0,0.0,0.0,1
10.0,-11.25,0.0,0,0.0,766,1,193,1,0,0,0,33,5,0.5,-0.625,0.0,0.0,2
12.0,-12.0,0.0,0,0.0,263,1,194,1,0,0,0,33,5,0.5,0.0,0.0,0.0,3
8.0,-14.0,0.0,0,0.0,390,1,195,1,0,0,0,33,5,0.5,-3.0,0.0,0.0,4
12.0,-16.5,0.0,0,0.0,1676,1,196,1,0,0,0,33,5,0.5,-2.25,0.0,0.0,5
4.0,-7.0,0.0,0,0.0,297,1,197,1,0,0,0,33,5,0.5,-1.5,0.0,0.0,6
4.0,-1.0,0.0,1,-1.0,222,1,198,1,0,0,0,33,5,0.5,1.5,0.0,0.0,7
5.0,-1.88,0.0,1,5.0,433,1,199,1,0,0,0,33,5,0.5,1.56,1.0,-1.0,0
8.0,0.0,3.0,0,3.0,243,1,200,1,0,0,0,33,5,0.5,4.0,1.0,5.0,0
8.0,-4.0,0.0,1,-4.0,259,1,201,1,1,0,0,33,5,0.5,2.0,0.0,3.0,1
2.0,-4.0,0.0,0,0.0,288,1,202,1,1,0,0,33,5,0.5,-1.0,1.0,-4.0,0
12.0,-9.0,0.0,1,-9.0,1399,1,203,1,1,0,0,33,5,0.5,1.5,0.0,0.0,1
4.0,-1.5,0.0,1,4.0,290,1,204,1,1,0,0,33,5,0.5,1.25,1.0,-9.0,0
6.0,-10.5,0.0,0,0.0,213,1,205,1,1,0,0,33,5,0.5,-2.25,1.0,4.0,0
5.0,-3.13,0.0,1,5.0,366,1,206,1,1,0,0,33,5,0.5,0.935,0.0,0.0,1
10.0,-15.0,0.0,0,0.0,340,1,207,1,1,0,0,33,5,0.5,-2.5,1.0,5.0,0
23.0,0.0,10.0,0,10.0,274,1,208,1,1,0,0,33,5,0.5,11.5,0.0,0.0,1
12.0,-7.5,0.0,1,-7.5,240,1,209,1,1,0,0,33,5,0.5,2.25,0.0,10.0,2
2.0,-0.5,0.0,1,-0.5,226,1,210,1,1,0,0,33,5,0.5,0.75,1.0,-7.5,0
4.0,0.0,2.0,0,2.0,291,1,211,1,1,0,0,33,5,0.5,2.0,1.0,-0.5,0
6.0,-1.5,0.0,1,-1.5,218,1,212,1,1,0,0,33,5,0.5,2.25,0.0,2.0,1
4.0,-1.0,0.0,1,4.0,299,1,213,1,1,0,0,33,5,0.5,1.5,1.0,-1.5,0
10.0,-20.0,0.0,0,0.0,346,1,214,1,1,0,0,33,5,0.5,-5.0,1.0,4.0,0
12.0,-22.5,0.0,0,0.0,284,1,215,1,1,0,0,33,5,0.5,-5.25,0.0,0.0,1
25.0,0.0,9.0,0,9.0,243,1,216,1,1,0,0,33,5,0.5,12.5,0.0,0.0,2
13.0,0.0,5.0,1,13.0,447,1,217,1,1,0,0,33,5,0.5,6.5,0.0,9.0,3
6.0,-5.25,0.0,0,0.0,257,1,218,1,1,0,0,33,5,0.5,0.375,1.0,13.0,0
9.0,-13.5,0.0,0,0.0,272,1,219,1,1,0,0,33,5,0.5,-2.25,0.0,0.0,1
5.0,0.0,2.0,0,2.0,251,1,220,1,1,0,0,33,5,0.5,2.5,0.0,0.0,2
2.0,-3.25,0.0,1,-3.25,399,1,221,1,0,0,0,33,5,0.5,-0.625,0.0,2.0,3
5.0,-5.0,0.0,1,-5.0,233,1,222,1,0,0,0,33,5,0.5,0.0,1.0,-3.25,0
26.0,0.0,10.0,0,10.0,281,1,223,1,0,0,0,33,5,0.5,13.0,1.0,-5.0,0
12.0,-10.5,0.0,0,0.0,302,1,224,1,0,0,0,33,5,0.5,0.75,0.0,10.0,1
2.0,0.0,1.0,0,1.0,282,1,225,1,0,0,0,33,5,0.5,1.0,0.0,0.0,2
6.0,-9.75,0.0,0,0.0,297,1,226,1,0,0,0,33,5,0.5,-1.875,0.0,1.0,3
8.0,-3.0,0.0,1,8.0,282,1,227,1,0,0,0,33,5,0.5,2.5,0.0,0.0,4
13.0,0.0,5.0,1,13.0,536,1,228,1,0,0,0,33,5,0.5,6.5,1.0,8.0,0
10.0,-7.5,0.0,0,0.0,237,1,229,1,0,0,0,33,5,0.5,1.25,1.0,13.0,0
8.0,-13.0,0.0,0,0.0,201,1,230,1,0,0,0,33,5,0.5,-2.5,0.0,0.0,1
12.0,-6.0,0.0,1,-6.0,298,1,231,1,1,0,0,33,5,0.5,3.0,0.0,0.0,2
5.0,-6.25,0.0,1,5.0,251,1,232,1,1,0,0,33,5,0.5,-0.625,1.0,-6.0,0
10.0,-3.75,0.0,1,10.0,240,1,233,1,1,0,0,33,5,0.5,3.125,1.0,5.0,0
9.0,-7.88,0.0,0,0.0,291,1,234,1,1,0,0,33,5,0.5,0.56,1.0,10.0,0
8.0,-6.0,0.0,1,-6.0,237,1,235,1,1,0,0,33,5,0.5,1.0,0.0,0.0,1
4.0,-5.5,0.0,0,0.0,236,1,236,1,1,0,0,33,5,0.5,-0.75,1.0,-6.0,0
19.0,0.0,8.0,0,8.0,253,1,237,1,1,0,0,33,5,0.5,9.5,0.0,0.0,1
10.0,-7.5,0.0,1,-7.5,285,1,238,1,1,0,0,33,5,0.5,1.25,0.0,8.0,2
4.0,-6.0,0.0,0,0.0,752,1,239,1,1,0,0,33,5,0.5,-1.0,1.0,-7.5,0
8.0,-14.0,0.0,0,0.0,234,1,240,1,1,0,0,33,5,0.5,-3.0,0.0,0.0,1
9.0,-3.38,0.0,1,-3.38,369,1,241,1,0,0,0,33,5,0.5,2.81,0.0,0.0,2
8.0,-15.0,0.0,0,0.0,321,1,242,1,0,0,0,33,5,0.5,-3.5,1.0,-3.38,0
30.0,0.0,12.0,0,12.0,234,1,243,1,0,0,0,33,5,0.5,15.0,0.0,0.0,1
8.0,-8.0,0.0,0,0.0,379,1,244,1,0,0,0,33,5,0.5,0.0,0.0,12.0,2
8.0,-5.0,0.0,1,8.0,322,1,245,1,0,0,0,33,5,0.5,1.5,0.0,0.0,3
12.0,-18.0,0.0,0,0.0,362,1,246,1,0,0,0,33,5,0.5,-3.0,1.0,8.0,0
10.0,-5.0,0.0,1,-5.0,255,1,247,1,0,0,0,33,5,0.5,2.5,0.0,0.0,1
9.0,-11.25,0.0,1,9.0,592,1,248,1,0,0,0,33,5,0.5,-1.125,1.0,-5.0,0
9.0,-7.88,0.0,0,0.0,391,1,249,1,0,0,0,33,5,0.5,0.56,1.0,9.0,0
8.0,-6.0,0.0,1,-6.0,564,1,250,1,0,0,0,33,5,0.5,1.0,0.0,0.0,1
8.0,0.0,3.0,0,3.0,490,1,251,1,1,0,0,33,5,0.5,4.0,1.0,-6.0,0
12.0,-21.0,0.0,0,0.0,309,1,252,1,1,0,0,33,5,0.5,-4.5,0.0,3.0,1
4.0,-2.0,0.0,1,-2.0,231,1,253,1,1,0,0,33,5,0.5,1.0,0.0,0.0,2
4.0,-5.0,0.0,0,0.0,259,1,254,1,1,0,0,33,5,0.5,-0.5,1.0,-2.0,0
6.0,-7.5,0.0,1,-7.5,271,1,255,1,1,0,0,33,5,0.5,-0.75,0.0,0.0,1
12.0,-12.0,0.0,1,-12.0,469,1,256,1,1,0,0,33,5,0.5,0.0,1.0,-7.5,0
8.0,-5.0,0.0,1,-5.0,228,1,257,1,1,0,0,33,5,0.5,1.5,1.0,-12.0,0
26.0,0.0,12.0,0,12.0,224,1,258,1,1,0,0,33,5,0.5,13.0,1.0,-5.0,0
8.0,-10.0,0.0,0,0.0,295,1,259,1,1,0,0,33,5,0.5,-1.0,0.0,12.0,1
5.0,-5.63,0.0,0,0.0,765,1,260,1,1,0,0,33,5,0.5,-0.3149999999999999,0.0,0.0,2
6.0,-4.5,0.0,1,6.0,277,1,261,1,0,0,0,33,5,0.5,0.75,0.0,0.0,3
8.0,-9.0,0.0,0,0.0,230,1,262,1,0,0,0,33,5,0.5,-0.5,1.0,6.0,0
4.0,-5.5,0.0,0,0.0,789,1,263,1,0,0,0,33,5,0.5,-0.75,0.0,0.0,1
4.0,-5.0,0.0,1,4.0,262,1,264,1,0,0,0,33,5,0.5,-0.5,0.0,0.0,2
9.0,-2.25,0.0,1,-2.25,625,1,265,1,0,0,0,33,5,0.5,3.375,1.0,4.0,0
23.0,0.0,10.0,0,0.0,0,1,266,1,0,0,0,33,5,0.5,11.5,1.0,-2.25,0
9.0,-5.63,0.0,1,-5.63,1477,1,267,1,0,0,0,33,5,0.5,1.685,0.0,0.0,1
4.0,-4.5,0.0,0,0.0,1740,1,268,1,0,0,0,33,5,0.5,-0.25,1.0,-5.63,0
4.0,-8.0,0.0,0,0.0,253,1,269,1,0,0,0,33,5,0.5,-2.0,0.0,0.0,1
19.0,0.0,8.0,0,8.0,235,1,270,1,0,0,0,33,5,0.5,9.5,0.0,0.0,2
2.0,-2.0,0.0,1,2.0,432,1,271,1,0,0,0,33,5,0.5,0.0,0.0,8.0,3
5.0,-8.13,0.0,1,5.0,275,1,272,1,0,0,0,33,5,0.5,-1.5650000000000004,1.0,2.0,0
5.0,-4.38,0.0,1,-4.38,250,1,273,1,0,0,0,33,5,0.5,0.31,1.0,5.0,0
2.0,-2.25,0.0,0,0.0,38,1,274,1,0,0,0,33,5,0.5,-0.125,1.0,-4.38,0
2.0,-0.75,0.0,1,-0.75,580,1,275,1,0,0,0,33,5,0.5,0.625,0.0,0.0,1
2.0,-2.75,0.0,0,0.0,867,1,276,1,0,0,0,33,5,0.5,-0.375,1.0,-0.75,0
5.0,-8.75,0.0,0,0.0,531,1,277,1,0,0,0,33,5,0.5,-1.875,0.0,0.0,1
9.0,-18.0,0.0,0,0.0,319,1,278,1,0,0,0,33,5,0.5,-4.5,0.0,0.0,2
4.0,-3.5,0.0,1,4.0,324,1,279,1,0,0,0,33,5,0.5,0.25,0.0,0.0,3
4.0,-2.5,0.0,1,-2.5,282,1,280,1,0,0,0,33,5,0.5,0.75,1.0,4.0,0
9.0,-6.75,0.0,1,-6.75,1009,1,1,1,0,0,0,34,6,0.5,1.125,,,0
6.0,-6.75,0.0,1,-6.75,585,1,2,1,0,0,0,34,6,0.5,-0.375,1.0,-6.75,0
6.0,-3.0,0.0,1,6.0,495,1,3,1,0,0,0,34,6,0.5,1.5,1.0,-6.75,0
2.0,-1.5,0.0,1,2.0,450,1,4,1,0,0,0,34,6,0.5,0.25,1.0,6.0,0
4.0,-3.0,0.0,1,4.0,401,1,5,1,0,0,0,34,6,0.5,0.5,1.0,2.0,0
5.0,-6.88,0.0,0,0.0,432,1,6,1,0,0,0,34,6,0.5,-0.94,1.0,4.0,0
12.0,-9.0,0.0,0,0.0,432,1,7,1,0,0,0,34,6,0.5,1.5,0.0,0.0,1
4.0,-5.0,0.0,0,0.0,399,1,8,1,0,0,0,34,6,0.5,-0.5,0.0,0.0,2
5.0,-7.5,0.0,0,0.0,358,1,9,1,0,0,0,34,6,0.5,-1.25,0.0,0.0,3
4.0,-4.0,0.0,1,-4.0,384,1,10,1,0,0,0,34,6,0.5,0.0,0.0,0.0,4
2.0,-1.0,0.0,1,2.0,459,1,11,1,1,0,0,34,6,0.5,0.5,1.0,-4.0,0
9.0,-6.75,0.0,1,-6.75,555,1,12,1,1,0,0,34,6,0.5,1.125,1.0,2.0,0
2.0,-4.0,0.0,0,0.0,321,1,13,1,1,0,0,34,6,0.5,-1.0,1.0,-6.75,0
2.0,-3.25,0.0,1,2.0,293,1,14,1,1,0,0,34,6,0.5,-0.625,0.0,0.0,1
4.0,-6.5,0.0,0,0.0,1271,1,15,1,1,0,0,34,6,0.5,-1.25,1.0,2.0,0
5.0,-5.63,0.0,1,-5.63,339,1,16,1,1,0,0,34,6,0.5,-0.3149999999999999,0.0,0.0,1
8.0,-8.0,0.0,1,-8.0,381,1,17,1,1,0,0,34,6,0.5,0.0,1.0,-5.63,0
12.0,-18.0,0.0,0,0.0,461,1,18,1,1,0,0,34,6,0.5,-3.0,1.0,-8.0,0
2.0,-2.5,0.0,1,2.0,807,1,19,1,1,0,0,34,6,0.5,-0.25,0.0,0.0,1
3.0,0.0,1.0,1,3.0,487,1,20,1,1,0,0,34,6,0.5,1.5,1.0,2.0,0
9.0,-5.63,0.0,1,-5.63,565,1,21,1,0,0,0,34,6,0.5,1.685,1.0,3.0,0
9.0,-14.63,0.0,0,0.0,497,1,22,1,0,0,0,34,6,0.5,-2.8150000000000004,1.0,-5.63,0
5.0,-9.38,0.0,0,0.0,670,1,23,1,0,0,0,34,6,0.5,-2.1900000000000004,0.0,0.0,1
6.0,-4.5,0.0,1,6.0,492,1,24,1,0,0,0,34,6,0.5,0.75,0.0,0.0,2
8.0,-7.0,0.0,1,-7.0,528,1,25,1,0,0,0,34,6,0.5,0.5,1.0,6.0,0
10.0,-16.25,0.0,0,0.0,1540,1,26,1,0,0,0,34,6,0.5,-3.125,1.0,-7.0,0
10.0,-17.5,0.0,0,0.0,507,1,27,1,0,0,0,34,6,0.5,-3.75,0.0,0.0,1
9.0,-16.88,0.0,0,0.0,316,1,28,1,0,0,0,34,6,0.5,-3.939999999999999,0.0,0.0,2
8.0,-5.0,0.0,1,8.0,373,1,29,1,0,0,0,34,6,0.5,1.5,0.0,0.0,3
6.0,-1.5,0.0,1,6.0,439,1,30,1,0,0,0,34,6,0.5,2.25,1.0,8.0,0
12.0,-18.0,0.0,0,0.0,342,1,31,1,0,0,0,34,6,0.5,-3.0,1.0,6.0,0
5.0,-6.25,0.0,0,0.0,1358,1,32,1,0,0,0,34,6,0.5,-0.625,0.0,0.0,1
8.0,-4.0,0.0,1,8.0,297,1,33,1,0,0,0,34,6,0.5,2.0,0.0,0.0,2
9.0,-15.75,0.0,0,0.0,397,1,34,1,0,0,0,34,6,0.5,-3.375,1.0,8.0,0
9.0,-13.5,0.0,0,0.0,371,1,35,1,0,0,0,34,6,0.5,-2.25,0.0,0.0,1
5.0,-8.13,0.0,0,0.0,753,1,36,1,0,0,0,34,6,0.5,-1.5650000000000004,0.0,0.0,2
2.0,0.0,1.0,1,0.0,443,1,37,1,0,0,0,34,6,0.5,1.0,0.0,0.0,3
2.0,-3.75,0.0,1,-3.75,450,1,38,1,0,0,0,34,6,0.5,-0.875,1.0,0.0,0
4.0,-6.5,0.0,0,0.0,417,1,39,1,0,0,0,34,6,0.5,-1.25,1.0,-3.75,0
10.0,-5.0,0.0,1,-5.0,602,1,40,1,0,0,0,34,6,0.5,2.5,0.0,0.0,1
12.0,-16.5,0.0,1,12.0,698,1,41,1,1,0,0,34,6,0.5,-2.25,1.0,-5.0,0
10.0,-12.5,0.0,1,-12.5,461,1,42,1,1,0,0,34,6,0.5,-1.25,1.0,12.0,0
5.0,-1.25,0.0,1,5.0,532,1,43,1,1,0,0,34,6,0.5,1.875,1.0,-12.5,0
19.0,0.0,8.0,1,19.0,1065,1,44,1,1,0,0,34,6,0.5,9.5,1.0,5.0,0
8.0,-9.0,0.0,1,-9.0,624,1,45,1,1,0,0,34,6,0.5,-0.5,1.0,19.0,0
5.0,-10.0,0.0,0,0.0,655,1,46,1,1,0,0,34,6,0.5,-2.5,1.0,-9.0,0
25.0,0.0,10.0,1,25.0,669,1,47,1,1,0,0,34,6,0.5,12.5,0.0,0.0,1
7.0,0.0,3.0,1,0.0,386,1,48,1,1,0,0,34,6,0.5,3.5,1.0,25.0,0
6.0,-11.25,0.0,1,6.0,419,1,49,1,1,0,0,34,6,0.5,-2.625,1.0,0.0,0
6.0,-1.5,0.0,1,-1.5,305,1,50,1,1,0,0,34,6,0.5,2.25,1.0,6.0,0
4.0,-1.5,0.0,1,4.0,354,1,51,1,1,0,0,34,6,0.5,1.25,1.0,-1.5,0
10.0,-5.0,0.0,1,10.0,347,1,52,1,1,0,0,34,6,0.5,2.5,1.0,4.0,0
10.0,-3.75,0.0,1,10.0,400,1,53,1,1,0,0,34,6,0.5,3.125,1.0,10.0,0
6.0,-4.5,0.0,1,-4.5,362,1,54,1,1,0,0,34,6,0.5,0.75,1.0,10.0,0
12.0,-19.5,0.0,1,12.0,744,1,55,1,1,0,0,34,6,0.5,-3.75,1.0,-4.5,0
5.0,-4.38,0.0,1,-4.38,357,1,56,1,1,0,0,34,6,0.5,0.31,1.0,12.0,0
8.0,-11.0,0.0,0,0.0,347,1,57,1,1,0,0,34,6,0.5,-1.5,1.0,-4.38,0
2.0,-0.75,0.0,1,2.0,402,1,58,1,1,0,0,34,6,0.5,0.625,0.0,0.0,1
2.0,-1.5,0.0,1,-1.5,517,1,59,1,1,0,0,34,6,0.5,0.25,1.0,2.0,0
6.0,-6.75,0.0,1,6.0,310,1,60,1,1,0,0,34,6,0.5,-0.375,1.0,-1.5,0
12.0,-22.5,0.0,0,0.0,456,1,61,1,0,0,0,34,6,0.5,-5.25,1.0,6.0,0
2.0,-1.0,0.0,1,2.0,1048,1,62,1,0,0,0,34,6,0.5,0.5,0.0,0.0,1
13.0,0.0,6.0,0,6.0,520,1,63,1,0,0,0,34,6,0.5,6.5,1.0,2.0,0
5.0,-2.5,0.0,1,5.0,359,1,64,1,0,0,0,34,6,0.5,1.25,0.0,6.0,1
2.0,-0.5,0.0,1,2.0,363,1,65,1,0,0,0,34,6,0.5,0.75,1.0,5.0,0
2.0,-3.25,0.0,0,0.0,329,1,66,1,0,0,0,34,6,0.5,-0.625,1.0,2.0,0
30.0,0.0,12.0,1,0.0,1252,1,67,1,0,0,0,34,6,0.5,15.0,0.0,0.0,1
8.0,-8.0,0.0,0,0.0,362,1,68,1,0,0,0,34,6,0.5,0.0,1.0,0.0,0
4.0,-5.5,0.0,0,0.0,391,1,69,1,0,0,0,34,6,0.5,-0.75,0.0,0.0,1
23.0,0.0,10.0,1,0.0,382,1,70,1,0,0,0,34,6,0.5,11.5,0.0,0.0,2
4.0,-3.5,0.0,1,4.0,517,1,71,1,0,0,0,34,6,0.5,0.25,1.0,0.0,0
5.0,0.0,2.0,1,5.0,355,1,72,1,0,0,0,34,6,0.5,2.5,1.0,4.0,0
8.0,0.0,3.0,1,0.0,832,1,73,1,0,0,0,34,6,0.5,4.0,1.0,5.0,0
9.0,-10.13,0.0,0,0.0,315,1,74,1,0,0,0,34,6,0.5,-0.5650000000000004,1.0,0.0,0
8.0,-16.0,0.0,0,0.0,398,1,75,1,0,0,0,34,6,0.5,-4.0,0.0,0.0,1
12.0,-24.0,0.0,0,0.0,428,1,76,1,0,0,0,34,6,0.5,-6.0,0.0,0.0,2
9.0,-3.38,0.0,1,-3.38,438,1,77,1,0,0,0,34,6,0.5,2.81,0.0,0.0,3
6.0,-5.25,0.0,0,0.0,366,1,78,1,0,0,0,34,6,0.5,0.375,1.0,-3.38,0
2.0,-4.0,0.0,0,0.0,301,1,79,1,0,0,0,34,6,0.5,-1.0,0.0,0.0,1
4.0,-1.0,0.0,1,-1.0,626,1,80,1,0,0,0,34,6,0.5,1.5,0.0,0.0,2
4.0,-6.0,0.0,1,4.0,364,1,81,1,1,0,0,34,6,0.5,-1.0,1.0,-1.0,0
10.0,-16.25,0.0,1,-16.25,564,1,82,1,1,0,0,34,6,0.5,-3.125,1.0,4.0,0
12.0,-15.0,0.0,1,-15.0,505,1,83,1,1,0,0,34,6,0.5,-1.5,1.0,-16.25,0
6.0,-5.25,0.0,1,6.0,311,1,84,1,1,0,0,34,6,0.5,0.375,1.0,-15.0,0
12.0,-21.0,0.0,0,0.0,498,1,85,1,1,0,0,34,6,0.5,-4.5,1.0,6.0,0
4.0,-3.0,0.0,1,4.0,332,1,86,1,1,0,0,34,6,0.5,0.5,0.0,0.0,1
12.0,-22.5,0.0,0,0.0,336,1,87,1,1,0,0,34,6,0.5,-5.25,1.0,4.0,0
2.0,-3.75,0.0,1,-3.75,293,1,88,1,1,0,0,34,6,0.5,-0.875,0.0,0.0,1
6.0,-12.0,0.0,1,-12.0,397,1,89,1,1,0,0,34,6,0.5,-3.0,1.0,-3.75,0
5.0,-8.13,0.0,1,5.0,324,1,90,1,1,0,0,34,6,0.5,-1.5650000000000004,1.0,-12.0,0
6.0,-11.25,0.0,0,0.0,337,1,91,1,0,0,0,34,6,0.5,-2.625,1.0,5.0,0
5.0,-4.38,0.0,1,-4.38,519,1,92,1,0,0,0,34,6,0.5,0.31,0.0,0.0,1
6.0,-2.25,0.0,1,6.0,312,1,93,1,0,0,0,34,6,0.5,1.875,1.0,-4.38,0
12.0,-10.5,0.0,0,0.0,591,1,94,1,0,0,0,34,6,0.5,0.75,1.0,6.0,0
9.0,-18.0,0.0,0,0.0,465,1,95,1,0,0,0,34,6,0.5,-4.5,0.0,0.0,1
10.0,-20.0,0.0,0,0.0,402,1,96,1,0,0,0,34,6,0.5,-5.0,0.0,0.0,2
4.0,-4.5,0.0,1,-4.5,494,1,97,1,0,0,0,34,6,0.5,-0.25,0.0,0.0,3
9.0,-2.25,0.0,1,-2.25,427,1,98,1,0,0,0,34,6,0.5,3.375,1.0,-4.5,0
4.0,-6.0,0.0,0,0.0,448,1,99,1,0,0,0,34,6,0.5,-1.0,1.0,-2.25,0
8.0,-10.0,0.0,0,0.0,340,1,100,1,0,0,0,34,6,0.5,-1.0,0.0,0.0,1
10.0,-8.75,0.0,1,-8.75,353,1,101,1,1,0,0,34,6,0.5,0.625,0.0,0.0,2
12.0,-6.0,0.0,1,-6.0,415,1,102,1,1,0,0,34,6,0.5,3.0,1.0,-8.75,0
5.0,-5.0,0.0,1,-5.0,389,1,103,1,1,0,0,34,6,0.5,0.0,1.0,-6.0,0
22.0,0.0,10.0,0,10.0,953,1,104,1,1,0,0,34,6,0.5,11.0,1.0,-5.0,0
12.0,-13.5,0.0,0,0.0,430,1,105,1,1,0,0,34,6,0.5,-0.75,0.0,10.0,1
8.0,-7.0,0.0,1,8.0,509,1,106,1,1,0,0,34,6,0.5,0.5,0.0,0.0,2
4.0,-3.5,0.0,1,-3.5,530,1,107,1,1,0,0,34,6,0.5,0.25,1.0,8.0,0
9.0,-12.38,0.0,1,9.0,390,1,108,1,1,0,0,34,6,0.5,-1.6900000000000004,1.0,-3.5,0
10.0,-7.5,0.0,1,-7.5,371,1,109,1,1,0,0,34,6,0.5,1.25,1.0,9.0,0
26.0,0.0,10.0,1,26.0,411,1,110,1,1,0,0,34,6,0.5,13.0,1.0,-7.5,0
5.0,-5.0,0.0,1,-5.0,340,1,111,1,0,0,0,34,6,0.5,0.0,1.0,26.0,0
5.0,-8.75,0.0,0,0.0,444,1,112,1,0,0,0,34,6,0.5,-1.875,1.0,-5.0,0
8.0,-6.0,0.0,1,-6.0,370,1,113,1,0,0,0,34,6,0.5,1.0,0.0,0.0,1
10.0,-13.75,0.0,0,0.0,480,1,114,1,0,0,0,34,6,0.5,-1.875,1.0,-6.0,0
2.0,-2.5,0.0,1,2.0,874,1,115,1,0,0,0,34,6,0.5,-0.25,0.0,0.0,1
8.0,-11.0,0.0,0,0.0,495,1,116,1,0,0,0,34,6,0.5,-1.5,1.0,2.0,0
4.0,-2.0,0.0,1,4.0,894,1,117,1,0,0,0,34,6,0.5,1.0,0.0,0.0,1
10.0,-7.5,0.0,1,-7.5,267,1,118,1,0,0,0,34,6,0.5,1.25,1.0,4.0,0
22.0,0.0,10.0,0,10.0,299,1,119,1,0,0,0,34,6,0.5,11.0,1.0,-7.5,0
25.0,0.0,10.0,1,0.0,480,1,120,1,0,0,0,34,6,0.5,12.5,0.0,10.0,1
12.0,-4.5,0.0,1,-4.5,375,1,121,1,1,0,0,34,6,0.5,3.75,1.0,0.0,0
8.0,-15.0,0.0,1,-15.0,572,1,122,1,1,0,0,34,6,0.5,-3.5,1.0,-4.5,0
2.0,-1.75,0.0,1,2.0,284,1,123,1,1,0,0,34,6,0.5,0.125,1.0,-15.0,0
12.0,0.0,6.0,1,0.0,911,1,124,1,1,0,0,34,6,0.5,6.0,1.0,2.0,0
9.0,-3.38,0.0,1,-3.38,588,1,125,1,1,0,0,34,6,0.5,2.81,1.0,0.0,0
2.0,-3.0,0.0,1,-3.0,583,1,126,1,1,0,0,34,6,0.5,-0.5,1.0,-3.38,0
9.0,-5.63,0.0,1,-5.63,309,1,127,1,1,0,0,34,6,0.5,1.685,1.0,-3.0,0
2.0,-3.5,0.0,1,-3.5,1246,1,128,1,1,0,0,34,6,0.5,-0.75,1.0,-5.63,0
8.0,-12.0,0.0,0,0.0,480,1,129,1,1,0,0,34,6,0.5,-2.0,1.0,-3.5,0
10.0,-18.75,0.0,0,0.0,285,1,130,1,1,0,0,34,6,0.5,-4.375,0.0,0.0,1
6.0,-9.75,0.0,0,0.0,409,1,131,1,0,0,0,34,6,0.5,-1.875,0.0,0.0,2
12.0,0.0,5.0,0,5.0,857,1,132,1,0,0,0,34,6,0.5,6.0,0.0,0.0,3
4.0,-2.5,0.0,1,-2.5,458,1,133,1,0,0,0,34,6,0.5,0.75,0.0,5.0,4
8.0,-3.0,0.0,1,8.0,417,1,134,1,0,0,0,34,6,0.5,2.5,1.0,-2.5,0
10.0,-11.25,0.0,0,0.0,237,1,135,1,0,0,0,34,6,0.5,-0.625,1.0,8.0,0
5.0,-10.0,0.0,0,0.0,282,1,136,1,0,0,0,34,6,0.5,-2.5,0.0,0.0,1
10.0,-15.0,0.0,0,0.0,587,1,137,1,0,0,0,34,6,0.5,-2.5,0.0,0.0,2
2.0,-3.5,0.0,1,-3.5,539,1,138,1,0,0,0,34,6,0.5,-0.75,0.0,0.0,3
12.0,0.0,4.0,1,12.0,441,1,139,1,0,0,0,34,6,0.5,6.0,1.0,-3.5,0
13.0,0.0,5.0,0,5.0,900,1,140,1,0,0,0,34,6,0.5,6.5,1.0,12.0,0
4.0,0.0,2.0,1,4.0,434,1,141,1,1,0,0,34,6,0.5,2.0,0.0,5.0,1
2.0,-2.25,0.0,1,2.0,399,1,142,1,1,0,0,34,6,0.5,-0.125,1.0,4.0,0
9.0,-2.25,0.0,1,-2.25,334,1,143,1,1,0,0,34,6,0.5,3.375,1.0,2.0,0
10.0,-13.75,0.0,0,0.0,493,1,144,1,1,0,0,34,6,0.5,-1.875,1.0,-2.25,0
28.0,0.0,13.0,0,13.0,355,1,145,1,1,0,0,34,6,0.5,14.0,0.0,0.0,1
4.0,-2.5,0.0,1,4.0,359,1,146,1,1,0,0,34,6,0.5,0.75,0.0,13.0,2
9.0,-15.75,0.0,0,0.0,1253,1,147,1,1,0,0,34,6,0.5,-3.375,1.0,4.0,0
10.0,-15.0,0.0,1,10.0,265,1,148,1,1,0,0,34,6,0.5,-2.5,0.0,0.0,1
10.0,-10.0,0.0,1,10.0,278,1,149,1,1,0,0,34,6,0.5,0.0,1.0,10.0,0
9.0,-18.0,0.0,0,0.0,514,1,150,1,1,0,0,34,6,0.5,-4.5,1.0,10.0,0
5.0,-3.75,0.0,1,5.0,369,1,151,1,0,0,0,34,6,0.5,0.625,0.0,0.0,1
26.0,0.0,12.0,1,26.0,352,1,152,1,0,0,0,34,6,0.5,13.0,1.0,5.0,0
5.0,-5.63,0.0,1,-5.63,417,1,153,1,0,0,0,34,6,0.5,-0.3149999999999999,1.0,26.0,0
8.0,-2.0,0.0,1,-2.0,321,1,154,1,0,0,0,34,6,0.5,3.0,1.0,-5.63,0
2.0,-3.0,0.0,1,-3.0,400,1,155,1,0,0,0,34,6,0.5,-0.5,1.0,-2.0,0
6.0,-9.0,0.0,0,0.0,290,1,156,1,0,0,0,34,6,0.5,-1.5,1.0,-3.0,0
9.0,-7.88,0.0,1,-7.88,338,1,157,1,0,0,0,34,6,0.5,0.56,0.0,0.0,1
8.0,-14.0,0.0,0,0.0,422,1,158,1,0,0,0,34,6,0.5,-3.0,1.0,-7.88,0
28.0,0.0,13.0,0,13.0,378,1,159,1,0,0,0,34,6,0.5,14.0,0.0,0.0,1
9.0,-12.38,0.0,0,0.0,439,1,160,1,0,0,0,34,6,0.5,-1.6900000000000004,0.0,13.0,2
12.0,-24.0,0.0,0,0.0,311,1,161,1,1,0,0,34,6,0.5,-6.0,0.0,0.0,3
13.0,0.0,5.0,1,13.0,330,1,162,1,1,0,0,34,6,0.5,6.5,0.0,0.0,4
5.0,-1.88,0.0,1,-1.88,332,1,163,1,1,0,0,34,6,0.5,1.56,1.0,13.0,0
4.0,-4.5,0.0,1,4.0,475,1,164,1,1,0,0,34,6,0.5,-0.25,1.0,-1.88,0
9.0,-7.88,0.0,1,9.0,344,1,165,1,1,0,0,34,6,0.5,0.56,1.0,4.0,0
9.0,-9.0,0.0,1,9.0,365,1,166,1,1,0,0,34,6,0.5,0.0,1.0,9.0,0
25.0,0.0,9.0,1,0.0,292,1,167,1,1,0,0,34,6,0.5,12.5,1.0,9.0,0
12.0,-12.0,0.0,1,-12.0,527,1,168,1,1,0,0,34,6,0.5,0.0,1.0,0.0,0
6.0,-2.25,0.0,1,6.0,409,1,169,1,1,0,0,34,6,0.5,1.875,1.0,-12.0,0
8.0,-5.0,0.0,1,-5.0,374,1,170,1,1,0,0,34,6,0.5,1.5,1.0,6.0,0
4.0,-5.5,0.0,1,-5.5,426,1,171,1,1,0,0,34,6,0.5,-0.75,1.0,-5.0,0
2.0,-1.25,0.0,1,-1.25,395,1,172,1,1,0,0,34,6,0.5,0.375,1.0,-5.5,0
9.0,-13.5,0.0,0,0.0,356,1,173,1,1,0,0,34,6,0.5,-2.25,1.0,-1.25,0
9.0,-4.5,0.0,1,9.0,378,1,174,1,1,0,0,34,6,0.5,2.25,0.0,0.0,1
10.0,-11.25,0.0,1,10.0,340,1,175,1,1,0,0,34,6,0.5,-0.625,1.0,9.0,0
6.0,-3.0,0.0,1,-3.0,291,1,176,1,1,0,0,34,6,0.5,1.5,1.0,10.0,0
10.0,-2.5,0.0,1,-2.5,505,1,177,1,1,0,0,34,6,0.5,3.75,1.0,-3.0,0
12.0,0.0,4.0,1,12.0,450,1,178,1,1,0,0,34,6,0.5,6.0,1.0,-2.5,0
10.0,-20.0,0.0,0,0.0,629,1,179,1,1,0,0,34,6,0.5,-5.0,1.0,12.0,0
