participant_id,trial,task,block_condition,task_transition,distractor_transition,distractor_type_prev,congruent,within_task_distractor,correct_response,accuracy,rt_ms,valid_rt
3780,1,1,single,0,0,,0,0,linken,1,902.18,1
3780,2,1,single,1,2,0,1,1,rechten,1,500.96000000002095,1
3780,3,2,single,2,1,1,0,1,linken,0,546.2399999999907,1
3780,4,2,single,1,1,1,1,1,rechten,1,511.9400000000023,1
3780,5,1,single,2,1,1,1,1,rechten,1,433.0999999999767,1
3780,6,1,single,1,2,1,0,0,linken,1,545.9400000000023,1
3780,7,2,single,2,2,0,0,1,rechten,1,587.7999999999884,1
3780,8,1,single,2,1,1,1,1,rechten,1,395.68,1
3780,9,2,single,2,1,1,1,1,rechten,1,509.53999999997905,1
3780,10,1,single,2,2,1,0,0,linken,1,742.0800000000163,1
3780,11,2,single,2,2,0,0,1,linken,1,804.04,1
3780,12,2,single,1,1,1,1,1,rechten,1,707.2399999999907,1
3780,13,2,single,1,1,1,1,1,rechten,1,553.4400000000023,1
3780,14,2,single,1,1,1,0,1,rechten,1,813.5999999999767,1
3780,15,2,single,1,1,1,1,1,rechten,1,512.04,1
3780,16,1,single,2,1,1,1,1,linken,1,494.28000000002794,1
3780,17,2,single,2,1,1,0,1,rechten,1,884.4799999999814,1
3780,18,2,single,1,2,1,1,0,linken,1,1344.359999999986,1
3780,19,1,single,2,1,0,1,0,linken,1,712.0599999999977,1
3780,20,2,single,2,1,0,1,0,rechten,1,509.64000000001397,1
3780,21,1,single,2,1,0,0,0,rechten,0,711.82,1
3780,22,1,single,1,2,0,1,1,rechten,1,556.9400000000023,1
3780,23,1,single,1,1,1,0,1,linken,1,677.04,1
3780,24,1,single,1,1,1,0,1,linken,1,604.64,1
3780,25,1,single,1,1,1,1,1,linken,1,720.7800000000279,1
3780,26,2,single,2,2,1,1,0,rechten,1,533.5999999999767,1
3780,27,1,single,2,1,0,0,0,rechten,1,624.5599999999977,1
3780,28,1,single,1,1,0,0,0,linken,1,740.04,1
3780,29,1,single,1,1,0,1,0,linken,1,646.8400000000256,1
3780,30,2,single,2,1,0,1,0,rechten,1,1230.140000000014,1
3780,31,2,single,1,1,0,1,0,rechten,1,697.96,1
3780,32,2,single,1,1,0,0,0,linken,1,1233.7000000000116,1
3780,33,2,single,1,1,0,0,0,rechten,1,794.6199999999953,1
3780,34,2,single,1,2,0,0,1,linken,1,869.4199999999837,1
3780,35,1,single,2,1,1,1,1,rechten,1,550.5999999999767,1
3780,36,1,single,1,2,1,0,0,linken,1,763.82,1
3780,37,2,single,2,1,0,0,0,linken,1,638.0599999999977,1
3780,38,1,single,2,1,0,0,0,linken,1,785.8800000000047,1
3780,39,1,single,1,1,0,1,0,rechten,1,515.0200000000186,1
3780,40,2,single,2,2,0,1,1,linken,1,810.5800000000163,1
3780,41,1,single,2,2,1,0,0,rechten,1,539.7399999999907,1
3780,42,1,single,1,2,0,1,1,linken,1,862.9799999999814,1
3780,43,1,single,1,1,1,1,1,rechten,1,682.46,1
3780,44,2,single,2,1,1,0,1,rechten,1,905.36,1
3780,45,1,single,2,2,1,0,0,rechten,0,551.5,1
3780,46,2,single,2,1,0,1,0,rechten,0,763.9200000000419,1
3780,47,2,single,1,1,0,0,0,linken,1,948.1600000000326,1
3780,48,1,single,2,1,0,0,0,linken,1,1075.3399999999674,1
3780,49,2,single,2,1,0,0,0,linken,1,897.9399999999441,1
3780,50,1,single,2,2,0,0,1,linken,1,1450.0400000000373,1
3780,51,2,single,2,2,1,0,0,rechten,1,719.2199999999721,1
3780,52,2,single,1,2,0,1,1,linken,1,655.6600000000326,1
3780,53,1,single,2,1,1,0,1,linken,0,489.1800000000512,1
3780,54,2,single,2,1,1,0,1,linken,1,729.2600000000093,1
3780,55,2,single,1,1,1,1,1,linken,1,628.8199999999488,1
3780,56,2,single,1,2,1,1,0,rechten,1,760.4000000000233,1
3780,57,2,single,1,1,0,0,0,linken,1,648.8000000000466,1
3780,58,1,single,2,2,0,0,1,rechten,1,842.0200000000186,1
3780,59,2,single,2,2,1,0,0,rechten,1,507.85999999998603,1
3780,60,2,single,1,1,0,1,0,linken,1,801.4200000000419,1
3780,61,2,single,1,1,0,1,0,rechten,1,501.2399999999907,1
3780,62,1,single,2,2,0,1,1,linken,1,596.1199999999953,1
3780,63,2,single,2,2,1,0,0,rechten,1,448.3199999999488,1
3780,64,2,single,1,2,0,0,1,rechten,1,512.2399999999907,1
3780,65,2,single,1,1,1,1,1,linken,1,511.45999999996275,1
3780,66,2,single,1,1,1,0,1,linken,1,525.9599999999627,1
3780,67,1,single,2,2,1,1,0,linken,1,445.5,1
3780,68,2,single,2,1,0,1,0,linken,1,588.3000000000466,1
3780,69,2,single,1,2,0,1,1,linken,1,550.1800000000512,1
3780,70,2,single,1,2,1,1,0,linken,0,452.4200000000419,1
3780,71,1,single,2,2,0,0,1,rechten,1,594.4399999999441,1
3780,72,1,single,1,2,1,1,0,rechten,1,556.5799999999581,1
3780,73,1,single,1,1,0,1,0,linken,1,442.85999999998603,1
3780,74,1,single,1,1,0,0,0,linken,1,460.78000000002794,1
3780,75,1,single,1,1,0,1,0,linken,1,572.2399999999907,1
3780,76,1,single,1,2,0,0,1,rechten,1,582.0799999999581,1
3780,77,1,single,1,2,1,1,0,rechten,1,449.0200000000186,1
3780,78,2,single,2,1,0,0,0,linken,0,467.19999999995343,1
3780,79,1,single,2,1,0,1,0,rechten,1,592.5600000000559,1
3780,80,2,single,2,1,0,1,0,rechten,1,648.4399999999441,1
3780,81,2,single,1,1,0,0,0,linken,1,778.6199999999953,1
3780,82,1,single,2,1,0,1,0,linken,1,807.4599999999627,1
3780,83,2,single,2,1,0,1,0,linken,0,474.69999999995343,1
3780,84,2,single,1,2,0,0,1,rechten,1,538.0200000000186,1
3780,85,2,single,1,2,1,1,0,linken,1,613.8800000000047,1
3780,86,2,single,1,2,0,0,1,rechten,0,557.4799999999814,1
3780,87,1,single,2,1,1,0,1,linken,0,584.4599999999627,1
3780,88,1,single,1,1,1,1,1,linken,1,702.14,1
3780,89,2,single,2,2,1,1,0,linken,0,1002.3000000000466,1
3780,90,2,single,1,1,0,0,0,rechten,1,702.6600000000326,1
3780,91,2,single,1,1,0,0,0,linken,1,734.8399999999674,1
3780,92,1,single,2,1,0,1,0,rechten,1,673.7600000000093,1
3780,93,2,single,2,2,0,1,1,linken,1,567.1800000000512,1
3780,94,2,single,1,1,1,0,1,rechten,1,609.7800000000279,1
3780,95,2,single,1,1,1,0,1,linken,1,741.3399999999674,1
3780,96,1,single,2,1,1,0,1,linken,1,1507.0999999999767,1
3780,97,1,single,1,2,1,1,0,linken,1,459.28000000002794,1
3780,98,1,single,1,1,0,0,0,rechten,1,601.4599999999627,1
3780,99,2,single,2,1,0,0,0,rechten,1,561.64,1
3780,100,1,single,2,2,0,1,1,linken,1,542.86,1
3780,101,2,single,2,1,1,0,1,linken,1,866.0600000000559,1
3780,102,1,single,2,2,1,0,0,rechten,1,717.6199999999953,1
3780,103,1,single,1,2,0,0,1,rechten,1,530.14,1
3780,104,1,single,1,2,1,1,0,rechten,1,776.9399999999441,1
3780,105,2,single,2,1,0,0,0,rechten,0,665.5400000000373,1
3780,106,1,single,2,2,0,1,1,linken,1,866.8199999999488,1
3780,107,1,single,1,1,1,1,1,linken,1,596.6999999999534,1
3780,108,1,single,1,1,1,0,1,linken,1,558.9599999999627,1
3780,109,2,single,2,2,1,1,0,linken,1,898.14,1
3780,110,1,single,2,2,0,0,1,linken,1,621.2600000000093,1
3780,111,2,single,2,1,1,1,1,linken,0,1067.8800000000047,1
3780,112,1,single,2,1,1,0,1,rechten,1,592.0799999999581,1
3780,113,1,single,1,1,1,0,1,rechten,1,772.9599999999627,1
3780,114,1,single,1,2,1,0,0,rechten,1,567.5200000000186,1
3780,115,2,single,2,2,0,1,1,rechten,1,625.0600000000559,1
3780,116,1,single,2,2,1,1,0,linken,1,570.5999999999767,1
3780,117,2,single,2,2,0,1,1,rechten,1,580.0600000000559,1
3780,118,1,single,2,1,1,1,1,rechten,1,574.9200000000419,1
3780,119,2,single,2,1,1,1,1,linken,1,692.7800000000279,1
3780,120,2,single,1,2,1,0,0,rechten,1,632.6800000000512,1
3780,121,2,single,1,2,0,1,1,rechten,1,545.5200000000186,1
3780,122,1,single,2,1,1,0,1,rechten,1,635.7800000000279,1
3780,123,1,single,1,2,1,1,0,rechten,1,610.3199999999488,1
3780,124,1,single,1,2,0,0,1,rechten,1,618.4399999999441,1
3780,125,1,single,1,2,1,0,0,rechten,1,610.9599999999627,1
3780,126,2,single,2,2,0,0,1,linken,0,570.5200000000186,1
3780,127,1,single,2,1,1,1,1,rechten,1,502.9000000000233,1
3780,128,1,single,1,2,1,1,0,rechten,1,627.6999999999534,1
3780,1,2,single,0,0,0,0,0,linken,1,602.9000000000233,1
3780,2,2,single,1,2,0,1,1,rechten,1,736.1600000000326,1
3780,3,2,single,1,1,1,1,1,linken,1,563.36,1
3780,4,2,single,1,2,1,0,0,rechten,1,528.4599999999627,1
3780,5,2,single,1,2,0,1,1,rechten,1,572.4399999999441,1
3780,6,1,single,2,2,1,0,0,rechten,1,534.9399999999441,1
3780,7,1,single,1,2,0,0,1,linken,1,563.8399999999674,1
3780,8,2,single,2,1,1,0,1,rechten,0,525.36,1
3780,9,2,single,1,2,1,0,0,linken,1,538.0799999999581,1
3780,10,1,single,2,1,0,0,0,linken,1,706.9200000000419,1
3780,11,1,single,1,2,0,0,1,linken,1,616.1199999999953,1
3780,12,1,single,1,2,1,1,0,linken,1,513.6600000000326,1
3780,13,2,single,2,2,0,0,1,rechten,1,151.8399999999674,1
3780,14,1,single,2,1,1,0,1,linken,1,593.4399999999441,1
3780,15,2,single,2,2,1,1,0,linken,1,588.1999999999534,1
3780,16,2,single,1,2,0,0,1,rechten,1,582.0400000000373,1
3780,17,1,single,2,2,1,1,0,linken,1,589.9599999999627,1
3780,18,2,single,2,2,0,0,1,rechten,1,599.1199999999953,1
3780,19,2,single,1,1,1,0,1,rechten,1,623.3000000000466,1
3780,20,2,single,1,2,1,1,0,rechten,1,738.9000000000233,1
3780,21,1,single,2,1,0,0,0,rechten,0,1222.6800000000512,1
3780,22,2,single,2,1,0,1,0,rechten,1,583,1
3780,23,1,single,2,2,0,1,1,linken,1,732.9000000000233,1
3780,24,1,single,1,1,1,1,1,rechten,1,591.7800000000279,1
3780,25,1,single,1,1,1,0,1,linken,1,850.9599999999627,1
3780,26,2,single,2,1,1,1,1,linken,1,874.0799999999581,1
3780,27,2,single,1,2,1,1,0,rechten,1,943.6600000000326,1
3780,28,2,single,1,2,0,1,1,linken,1,885.5,1
3780,29,1,single,2,2,1,1,0,rechten,1,702.3800000000047,1
3780,30,2,single,2,1,0,0,0,rechten,1,704.5,1
3780,31,1,single,2,1,0,0,0,linken,1,612.7600000000093,1
3780,32,2,single,2,2,0,0,1,rechten,1,558.2399999999907,1
3780,33,2,single,1,1,1,0,1,linken,1,646.4799999999814,1
3780,34,2,single,1,1,1,1,1,linken,1,574.5999999999767,1
3780,35,2,single,1,2,1,1,0,linken,1,459.0999999999767,1
3780,36,1,single,2,1,0,1,0,rechten,1,633.3199999999488,1
3780,37,1,single,1,2,0,1,1,linken,1,717.2600000000093,1
3780,38,2,single,2,2,1,1,0,linken,1,842.7399999999907,1
3780,39,1,single,2,2,0,0,1,linken,1,820.9399999999441,1
3780,40,1,single,1,2,1,1,0,rechten,1,752.4599999999627,1
3780,41,1,single,1,1,0,1,0,linken,1,564.3399999999674,1
3780,42,2,single,2,1,0,0,0,linken,0,2108.5400000000373,1
3780,43,1,single,2,1,0,1,0,linken,1,630.4000000000233,1
3780,44,2,single,2,1,0,1,0,linken,1,699.2399999999907,1
3780,45,1,single,2,2,0,0,1,rechten,1,592.4399999999441,1
3780,46,1,single,1,2,1,0,0,linken,1,491.30000000004657,1
3780,47,2,single,2,1,0,0,0,rechten,1,1632.1199999999953,1
3780,48,1,single,2,2,0,0,1,linken,1,624.0200000000186,1
3780,49,1,single,1,2,1,1,0,linken,1,770.5799999999581,1
3780,50,1,single,1,2,0,1,1,rechten,1,1909.0400000000373,1
3780,51,1,single,1,1,1,0,1,rechten,1,554.0799999999581,1
3780,52,1,single,1,2,1,0,0,rechten,1,2456.280000000028,1
3780,53,2,single,2,2,0,0,1,linken,1,1006.4399999999441,1
3780,54,2,single,1,1,1,0,1,linken,1,628.5200000000186,1
3780,55,2,single,1,1,1,1,1,linken,1,730.0799999999581,1
3780,56,2,single,1,2,1,1,0,linken,1,510.9799999999814,1
3780,57,1,single,2,1,0,0,0,linken,1,727.4000000000233,1
3780,58,2,single,2,2,0,0,1,linken,1,1571.2600000000093,1
3780,59,2,single,1,1,1,0,1,rechten,0,4065.819999999949,0
3780,60,2,single,1,2,1,1,0,rechten,1,592.5400000000373,1
3780,61,1,single,2,1,0,0,0,rechten,1,491.4399999999441,1
3780,62,1,single,1,1,0,0,0,rechten,1,508.2600000000093,1
3780,63,1,single,1,2,0,1,1,rechten,1,554.5400000000373,1
3780,64,1,single,1,2,1,1,0,linken,1,579.0200000000186,1
3780,65,1,single,1,1,0,1,0,rechten,1,510.85999999998603,1
3780,66,1,single,1,2,0,0,1,linken,1,633.4799999999814,1
3780,67,2,single,2,1,1,1,1,rechten,1,576.2399999999907,1
3780,68,2,single,1,1,1,0,1,rechten,1,556.8800000000047,1
3780,69,2,single,1,2,1,0,0,linken,1,801.0600000000559,1
3780,70,1,single,2,1,0,1,0,rechten,1,610.1600000000326,1
3780,71,1,single,1,1,0,0,0,linken,1,477.38000000000466,1
3780,72,1,single,1,1,0,0,0,linken,1,431,1
3780,73,2,single,2,1,0,1,0,linken,1,590.8000000000466,1
3780,74,1,single,2,1,0,0,0,rechten,1,536.6600000000326,1
3780,75,2,single,2,1,0,0,0,linken,0,471.5200000000186,1
3780,76,2,single,1,2,0,0,1,linken,1,706.2800000000279,1
3780,77,2,single,1,2,1,0,0,rechten,1,535.4000000000233,1
3780,78,1,single,2,1,0,1,0,linken,1,516.6600000000326,1
3780,79,2,single,2,2,0,1,1,linken,1,529.1800000000512,1
3780,80,1,single,2,1,1,1,1,linken,1,495.0799999999581,1
3780,81,2,single,2,2,1,0,0,linken,1,540.3000000000466,1
3780,82,2,single,1,2,0,1,1,rechten,1,522.14,1
3780,83,1,single,2,2,1,0,0,rechten,1,564.9399999999441,1
3780,84,2,single,2,1,0,0,0,rechten,1,496.5799999999581,1
3780,85,2,single,1,1,0,1,0,rechten,1,480.80000000004657,1
3780,86,1,single,2,2,0,1,1,linken,1,495.6600000000326,1
3780,87,1,single,1,2,1,1,0,linken,1,416.7399999999907,1
3780,88,1,single,1,2,0,1,1,linken,1,467.3199999999488,1
3780,89,2,single,2,2,1,0,0,rechten,1,499.88000000000466,1
3780,90,1,single,2,2,0,1,1,linken,1,437.0200000000186,1
3780,91,2,single,2,2,1,1,0,rechten,1,547.9399999999441,1
3780,92,1,single,2,2,0,1,1,rechten,1,500.4799999999814,1
3780,93,2,single,2,2,1,0,0,linken,1,562.3399999999674,1
3780,94,2,single,1,1,0,0,0,rechten,1,462.85999999998603,1
3780,95,2,single,1,2,0,1,1,rechten,1,619.4399999999441,1
3780,96,1,single,2,1,1,0,1,rechten,1,672.2800000000279,1
3780,97,1,single,1,2,1,1,0,rechten,0,427.7399999999907,1
3780,98,2,single,2,2,0,1,1,rechten,1,523.5,1
3780,99,1,single,2,1,1,0,1,rechten,1,879.4000000000233,1
3780,100,1,single,1,1,1,0,1,rechten,1,543.9000000000233,1
3780,101,1,single,1,2,1,0,0,linken,1,554.1199999999953,1
3780,102,1,single,1,2,0,0,1,rechten,1,581.2399999999907,1
3780,103,2,single,2,1,1,1,1,rechten,1,574.1199999999953,1
3780,104,1,single,2,1,1,0,1,rechten,1,538.0200000000186,1
3780,105,2,single,2,2,1,1,0,rechten,1,517.8199999999488,1
3780,106,2,single,1,1,0,0,0,rechten,1,515.4599999999627,1
3780,107,2,single,1,2,0,1,1,linken,1,639.9200000000419,1
3780,108,1,single,2,2,1,0,0,linken,1,909.7800000000279,1
3780,109,1,single,1,2,0,1,1,rechten,1,586.36,1
3780,110,2,single,2,2,1,1,0,linken,1,719.5799999999581,1
3780,111,1,single,2,2,0,1,1,rechten,1,564.0200000000186,1
3780,112,1,single,1,1,1,1,1,linken,1,699.5600000000559,1
3780,113,2,single,2,2,1,0,0,linken,1,747.8000000000466,1
3780,114,1,single,2,1,0,1,0,rechten,1,621.9399999999441,1
3780,115,2,single,2,2,0,0,1,linken,1,752.8399999999674,1
3780,116,1,single,2,1,1,1,1,rechten,1,503,1
3780,117,1,single,1,2,1,0,0,rechten,1,579.1999999999534,1
3780,118,1,single,1,2,0,0,1,rechten,1,510.7600000000093,1
3780,119,2,single,2,1,1,1,1,linken,1,930.1999999999534,1
3780,120,2,single,1,1,1,0,1,linken,1,696.8000000000466,1
3780,121,1,single,2,2,1,1,0,rechten,1,591,1
3780,122,1,single,1,2,0,0,1,linken,1,645.86,1
3780,123,2,single,2,2,1,1,0,rechten,1,603.36,1
3780,124,2,single,1,2,0,0,1,linken,0,454.5799999999581,1
3780,125,2,single,1,2,1,1,0,linken,1,550.5999999999767,1
3780,126,2,single,1,2,0,1,1,rechten,1,578.8199999999488,1
3780,127,1,single,2,1,1,1,1,rechten,1,525.3199999999488,1
3780,128,1,single,1,1,1,1,1,linken,1,819.1199999999953,1
3780,1,2,single,0,0,1,1,0,rechten,1,552.5400000000373,1
3780,2,1,single,2,1,0,0,0,rechten,1,469.19999999995343,1
3780,3,1,single,1,1,0,1,0,rechten,1,516.7399999999907,1
3780,4,1,single,1,2,0,0,1,linken,0,468.21999999997206,1
3780,5,1,single,1,2,1,0,0,linken,1,469.63999999989755,1
3780,6,1,single,1,1,0,1,0,linken,1,438.1599999999162,1
3780,7,1,single,1,2,0,1,1,rechten,0,567,1
3780,8,1,single,1,2,1,1,0,linken,1,581.3000000000466,1
3780,9,1,single,1,2,0,1,1,linken,1,555.3000000000466,1
3780,10,1,single,1,2,1,0,0,rechten,1,628.4599999999627,1
3780,11,1,single,1,1,0,1,0,rechten,1,556.9799999999814,1
3780,12,1,single,1,2,0,0,1,rechten,1,506.1599999999162,1
3780,13,2,single,2,2,1,0,0,linken,1,646.3400000000838,1
3780,14,2,single,1,1,0,0,0,linken,1,603.5800000000745,1
3780,15,2,single,1,2,0,0,1,linken,1,627.7800000000279,1
3780,16,2,single,1,1,1,0,1,linken,1,478.28000000002794,1
3780,17,2,single,1,1,1,1,1,rechten,0,588.1200000001118,1
3780,18,1,single,2,1,1,1,1,linken,1,424.9199999999255,1
3780,19,2,single,2,2,1,0,0,rechten,1,646.7800000000279,1
3780,20,2,single,1,2,0,1,1,linken,1,510.30000000004657,1
3780,21,2,single,1,2,1,1,0,rechten,1,632.8799999998882,1
3780,22,1,single,2,1,0,1,0,linken,1,530.6999999999534,1
3780,23,2,single,2,2,0,0,1,linken,1,669.2399999999907,1
3780,24,2,single,1,2,1,0,0,rechten,0,453.78000000002794,1
3780,25,1,single,2,1,0,0,0,linken,1,532.8000000000466,1
3780,26,1,single,1,2,0,0,1,rechten,1,654.6599999999162,1
3780,27,2,single,2,2,1,1,0,linken,1,878.1000000000931,1
3780,28,1,single,2,1,0,1,0,rechten,1,461.9399999999441,1
3780,29,2,single,2,1,0,1,0,rechten,1,509.5,1
3780,30,2,single,1,1,0,0,0,linken,1,571.1200000001118,1
3780,31,1,single,2,2,0,0,1,rechten,1,517.6599999999162,1
3780,32,2,single,2,1,1,0,1,linken,1,547.0800000000745,1
3780,33,2,single,1,2,1,1,0,linken,1,559.9399999999441,1
3780,34,1,single,2,1,0,0,0,rechten,1,508.2399999999907,1
3780,35,1,single,1,2,0,1,1,linken,1,475.4199999999255,1
3780,36,2,single,2,2,1,1,0,linken,1,506.2600000000093,1
3780,37,2,single,1,1,0,1,0,rechten,0,583.7600000000093,1
3780,38,1,single,2,2,0,1,1,linken,1,529.5,1
3780,39,2,single,2,2,1,1,0,linken,1,494.36000000010245,1
3780,40,2,single,1,2,0,0,1,rechten,1,493.5,1
3780,41,2,single,1,2,1,1,0,rechten,1,523.7600000000093,1
3780,42,2,single,1,1,0,1,0,linken,1,474.28000000002794,1
3780,43,2,single,1,1,0,0,0,rechten,1,662.8400000000838,1
3780,44,1,single,2,2,0,0,1,linken,1,480.39999999990687,1
3780,45,2,single,2,1,1,1,1,linken,1,512.8999999999069,1
3780,46,1,single,2,1,1,0,1,linken,1,589.1399999998976,1
3780,47,1,single,1,1,1,1,1,rechten,1,644.8999999999069,1
3780,48,1,single,1,2,1,1,0,rechten,1,868.1799999999348,1
3780,49,2,single,2,2,0,0,1,rechten,1,1156.6799999999348,1
3780,50,1,single,2,1,1,0,1,rechten,1,1287.1599999999162,1
3780,51,1,single,1,1,1,0,1,rechten,1,1782.2600000000093,1
3780,52,2,single,2,1,1,1,1,linken,1,794.1399999998976,1
3780,53,1,single,2,1,1,1,1,rechten,1,1275.9599999999627,1
3780,54,2,single,2,2,1,0,0,rechten,1,1257.3799999998882,1
3780,55,2,single,1,2,0,1,1,linken,1,1005.5600000000559,1
3780,56,2,single,1,2,1,1,0,rechten,1,739.6599999999162,1
3780,57,1,single,2,2,0,1,1,linken,1,1144.5800000000745,1
3780,58,1,single,1,2,1,1,0,rechten,1,760.7600000000093,1
3780,59,1,single,1,1,0,0,0,rechten,1,1757.3000000000466,1
3780,60,2,single,2,2,0,0,1,rechten,1,817.6799999999348,1
3780,61,2,single,1,2,1,0,0,linken,1,562.2199999999721,1
3780,62,1,single,2,1,0,1,0,rechten,1,496.45999999996275,1
3780,63,1,single,1,2,0,0,1,linken,1,478.6599999999162,1
3780,64,2,single,2,1,1,0,1,linken,0,385.1599999999162,1
3780,65,1,single,2,1,1,1,1,linken,1,469.86000000010245,1
3780,66,1,single,1,1,1,0,1,linken,1,736.4399999999441,1
3780,67,1,single,1,2,1,0,0,rechten,0,565.3000000000466,1
3780,68,2,single,2,1,0,0,0,rechten,0,451.3400000000838,1
3780,69,1,single,2,1,0,0,0,linken,1,656.3799999998882,1
3780,70,2,single,2,2,0,1,1,rechten,1,504.4799999999814,1
3780,71,2,single,1,2,1,0,0,rechten,1,519.7800000000279,1
3780,72,2,single,1,1,0,0,0,linken,1,486.21999999997206,1
3780,73,2,single,1,2,0,1,1,linken,1,564.1000000000931,1
3780,74,1,single,2,1,1,1,1,linken,0,713.6599999999162,1
3780,75,2,single,2,1,1,0,1,linken,1,778.7199999999721,1
3780,76,1,single,2,1,1,1,1,rechten,1,446.60000000009313,1
3780,77,1,single,1,2,1,1,0,linken,1,557.6999999999534,1
3780,78,2,single,2,1,0,0,0,rechten,1,865.2600000000093,1
3780,79,2,single,1,1,0,1,0,linken,1,670.7800000000279,1
3780,80,1,single,2,1,0,0,0,linken,1,813.6999999999534,1
3780,81,2,single,2,1,0,0,0,rechten,1,745.1200000001118,1
3780,82,2,single,1,2,0,0,1,linken,1,589,1
3780,83,2,single,1,2,1,0,0,linken,1,534.2199999999721,1
3780,84,1,single,2,1,0,0,0,linken,1,733.4399999999441,1
3780,85,1,single,1,1,0,0,0,rechten,1,748.1799999999348,1
3780,86,1,single,1,1,0,1,0,linken,1,577.0600000000559,1
3780,87,1,single,1,1,0,0,0,rechten,1,663.9599999999627,1
3780,88,2,single,2,1,0,0,0,linken,0,558.4599999999627,1
3780,89,1,single,2,2,0,0,1,rechten,1,537.8999999999069,1
3780,90,2,single,2,1,1,0,1,rechten,1,627.8000000000466,1
3780,91,2,single,1,1,1,0,1,linken,1,681.5800000000745,1
3780,92,2,single,1,1,1,0,1,rechten,1,605.5,1
3780,93,2,single,1,1,1,1,1,rechten,1,443.62000000011176,1
3780,94,1,single,2,1,1,1,1,rechten,1,570.5,1
3780,95,2,single,2,2,1,0,0,linken,1,534,1
3780,96,1,single,2,1,0,1,0,linken,1,623.8999999999069,1
3780,97,2,single,2,2,0,0,1,rechten,1,507.37999999988824,1
3780,98,1,single,2,1,1,0,1,linken,1,472.9799999999814,1
3780,99,1,single,1,2,1,0,0,linken,1,598.8799999998882,1
3780,100,2,single,2,2,0,1,1,linken,1,575.0800000000745,1
3780,101,2,single,1,1,1,1,1,rechten,1,522.6399999998976,1
3780,102,1,single,2,2,1,0,0,rechten,1,581.5200000000186,1
3780,103,2,single,2,2,0,0,1,rechten,1,559.3600000001024,1
3780,104,1,single,2,2,1,0,0,linken,1,525.5,1
3780,105,1,single,1,2,0,0,1,rechten,0,787.4199999999255,1
3780,106,2,single,2,2,1,1,0,linken,1,690.7600000000093,1
3780,107,1,single,2,2,0,1,1,rechten,1,551.9399999999441,1
3780,108,1,single,1,2,1,0,0,linken,1,594.0800000000745,1
3780,109,2,single,2,2,0,1,1,linken,1,1010.9199999999255,1
3780,110,2,single,1,1,1,1,1,rechten,1,601.3999999999069,1
3780,111,1,single,2,1,1,0,1,linken,1,657.6000000000931,1
3780,112,1,single,1,1,1,0,1,linken,1,489.86000000010245,1
3780,113,1,single,1,2,1,1,0,linken,1,521.7600000000093,1
3780,114,1,single,1,2,0,1,1,rechten,1,441.36000000010245,1
3780,115,1,single,1,1,1,1,1,linken,1,521.0800000000745,1
3780,116,2,single,2,1,1,1,1,linken,1,816.6399999998976,1
3780,117,1,single,2,2,1,1,0,linken,1,859.8400000000838,1
3780,118,2,single,2,2,0,0,1,rechten,1,647.3799999998882,1
3780,119,1,single,2,2,1,1,0,rechten,0,590.6200000001118,1
3780,120,2,single,2,1,0,1,0,linken,1,677.1799999999348,1
3780,121,1,single,2,2,0,0,1,rechten,1,461.8200000000652,1
3780,122,1,single,1,2,1,1,0,rechten,1,510.2600000000093,1
3780,123,2,single,2,2,0,1,1,rechten,1,1475.8999999999069,1
3780,124,2,single,1,1,1,1,1,rechten,1,554.6799999999348,1
3780,125,2,single,1,1,1,1,1,rechten,1,893.8400000000838,1
3780,126,2,single,1,2,1,1,0,rechten,1,524.0800000000745,1
3780,127,1,single,2,2,0,1,1,rechten,1,662.5400000000373,1
3780,128,2,single,2,2,1,1,0,rechten,1,636.0800000000745,1
3780,1,1,single,0,0,0,0,1,rechten,1,562.1599999999162,1
3780,2,2,single,2,1,1,0,1,rechten,1,540.6000000000931,1
3780,3,2,single,1,2,1,1,0,linken,1,630.5400000000373,1
3780,4,2,single,1,2,0,0,1,rechten,1,575.3600000001024,1
3780,5,2,single,1,2,1,1,0,linken,1,537.8999999999069,1
3780,6,1,single,2,1,0,0,0,rechten,1,519.1599999999162,1
3780,7,2,single,2,1,0,0,0,linken,1,641.2600000000093,1
3780,8,1,single,2,2,0,1,1,rechten,1,382.2600000000093,1
3780,9,1,single,1,2,1,0,0,linken,1,655.1000000000931,1
3780,10,2,single,2,2,0,0,1,rechten,1,675.1799999999348,1
3780,11,1,single,2,2,1,1,0,rechten,1,475.7399999999907,1
3780,12,2,single,2,2,0,1,1,rechten,1,555.3400000000838,1
3780,13,1,single,2,1,1,1,1,rechten,1,550.4799999999814,1
3780,14,2,single,2,2,1,0,0,rechten,1,531.6599999999162,1
3780,15,1,single,2,1,0,1,0,linken,1,526.5200000000186,1
3780,16,2,single,2,1,0,0,0,linken,1,508.4199999999255,1
3780,17,1,single,2,1,0,1,0,linken,1,506.0200000000186,1
3780,18,2,single,2,1,0,0,0,linken,1,1146.1399999998976,1
3780,19,2,single,1,1,0,1,0,linken,1,496.0600000000559,1
3780,20,2,single,1,1,0,1,0,rechten,1,667.2600000000093,1
3780,21,1,single,2,1,0,1,0,rechten,0,1169.719999999972,1
3780,22,2,single,2,1,0,1,0,linken,1,736.0400000000373,1
3780,23,2,single,1,2,0,1,1,linken,1,608.6200000001118,1
3780,24,2,single,1,1,1,0,1,rechten,1,570.7800000000279,1
3780,25,1,single,2,2,1,1,0,rechten,1,487.3200000000652,1
3780,26,2,single,2,1,0,0,0,rechten,1,565.1599999999162,1
3780,27,2,single,1,2,0,0,1,linken,1,733.3600000001024,1
3780,28,1,single,2,2,1,0,0,linken,0,966.2199999999721,1
3780,29,2,single,2,1,0,0,0,rechten,1,748.4799999999814,1
3780,30,2,single,1,2,0,1,1,rechten,1,545.7399999999907,1
3780,31,2,single,1,2,1,1,0,linken,1,681.5600000000559,1
3780,32,1,single,2,2,0,0,1,linken,1,575.4599999999627,1
3780,33,2,single,2,2,1,0,0,rechten,0,492.0600000000559,1
3780,34,1,single,2,2,0,0,1,rechten,1,632.6599999999162,1
3780,35,1,single,1,2,1,0,0,rechten,1,700.5400000000373,1
3780,36,1,single,1,2,0,1,1,linken,1,452.7399999999907,1
3780,37,1,single,1,2,1,1,0,linken,1,502.5800000000745,1
3780,38,1,single,1,2,0,1,1,rechten,1,485.86000000010245,1
3780,39,1,single,1,2,1,1,0,rechten,1,470.71999999997206,1
3780,40,1,single,1,2,0,0,1,linken,1,516.5600000000559,1
3780,41,1,single,1,2,1,0,0,linken,1,561.1399999998976,1
3780,42,1,single,1,1,0,1,0,linken,1,493.71999999997206,1
3780,43,1,single,1,1,0,0,0,rechten,1,429.9199999999255,1
3780,44,1,single,1,1,0,0,0,rechten,0,824.7600000000093,1
3780,45,1,single,1,2,0,1,1,linken,1,538.1200000001118,1
3780,46,1,single,1,1,1,1,1,rechten,1,472,1
3780,47,1,single,1,2,1,0,0,rechten,1,518.8799999998882,1
3780,48,2,single,2,2,0,1,1,linken,0,545.6999999999534,1
3780,49,2,single,1,1,1,1,1,rechten,1,447.7600000000093,1
3780,50,2,single,1,1,1,0,1,linken,1,542.9799999999814,1
3780,51,2,single,1,1,1,0,1,rechten,1,681.7800000000279,1
3780,52,1,single,2,2,1,0,0,linken,1,620.5800000000745,1
3780,53,1,single,1,2,0,0,1,rechten,1,535.2199999999721,1
3780,54,1,single,1,2,1,1,0,rechten,1,608.9799999999814,1
3780,55,2,single,2,1,0,0,0,linken,1,602.1999999999534,1
3780,56,1,single,2,2,0,0,1,rechten,1,469.4799999999814,1
3780,57,1,single,1,1,1,0,1,linken,1,580.0200000000186,1
3780,58,2,single,2,1,1,0,1,rechten,0,605.7800000000279,1
3780,59,1,single,2,1,1,1,1,rechten,1,949.5400000000373,1
3780,60,1,single,1,2,1,0,0,linken,1,1394.3999999999069,1
3780,61,1,single,1,2,0,0,1,rechten,1,666.1999999999534,1
3780,62,2,single,2,1,1,1,1,rechten,1,498.63999999989755,1
3780,63,1,single,2,2,1,1,0,linken,1,950.8400000000838,1
3780,64,1,single,1,2,0,0,1,rechten,1,515.0600000000559,1
3780,65,2,single,2,1,1,0,1,linken,1,575.6799999999348,1
3780,66,1,single,2,2,1,0,0,linken,1,585.5,1
3780,67,1,single,1,2,0,0,1,rechten,1,562.3999999999069,1
3780,68,1,single,1,2,1,1,0,rechten,1,509.87999999988824,1
3780,69,2,single,2,2,0,1,1,linken,1,570.4599999999627,1
3780,70,1,single,2,2,1,0,0,rechten,1,611.8600000001024,1
3780,71,2,single,2,1,0,0,0,rechten,1,776.1999999999534,1
3780,72,2,single,1,2,0,1,1,linken,1,460.9199999999255,1
3780,73,2,single,1,2,1,1,0,linken,0,587.5200000000186,1
3780,74,2,single,1,1,0,1,0,rechten,1,549.2399999999907,1
3780,75,2,single,1,2,0,1,1,linken,1,592.3400000000838,1
3780,76,2,single,1,1,1,0,1,rechten,1,771.5600000000559,1
3780,77,2,single,1,2,1,0,0,linken,1,895.1399999998976,1
3780,78,2,single,1,2,0,1,1,linken,1,540.3400000000838,1
3780,79,1,single,2,2,1,1,0,rechten,1,505.5,1
3780,80,1,single,1,2,0,0,1,linken,1,597.7600000000093,1
3780,81,1,single,1,1,1,0,1,linken,1,495.8400000000838,1
3780,82,2,single,2,1,1,1,1,rechten,1,465.71999999997206,1
3780,83,2,single,1,2,1,1,0,linken,1,481.30000000004657,1
3780,84,2,single,1,2,0,1,1,rechten,1,575.8799999998882,1
3780,85,1,single,2,2,1,0,0,linken,1,570.7399999999907,1
3780,86,1,single,1,1,0,0,0,rechten,1,549.2399999999907,1
3780,87,1,single,1,1,0,0,0,rechten,1,638.3600000001024,1
3780,88,2,single,2,1,0,1,0,rechten,1,723.3200000000652,1
3780,89,2,single,1,2,0,0,1,linken,1,801.8600000001024,1
3780,90,2,single,1,2,1,1,0,rechten,1,498.3400000000838,1
3780,91,1,single,2,2,0,0,1,linken,1,561.5,1
3780,92,2,single,2,1,1,1,1,linken,1,571.0200000000186,1
3780,93,1,single,2,1,1,0,1,linken,1,594.9399999999441,1
3780,94,2,single,2,2,1,1,0,rechten,1,510.8400000000838,1
3780,95,1,single,2,2,0,1,1,linken,1,556.3600000001024,1
3780,96,1,single,1,1,1,1,1,linken,1,502.8200000000652,1
3780,97,2,single,2,2,1,1,0,rechten,1,628.0800000000745,1
3780,98,1,single,2,1,0,1,0,linken,1,788.9599999999627,1
3780,99,1,single,1,2,0,1,1,linken,1,598.7600000000093,1
3780,100,2,single,2,1,1,0,1,linken,1,840.8999999999069,1
3780,101,2,single,1,2,1,0,0,rechten,1,677.1599999999162,1
3780,102,1,single,2,1,0,1,0,linken,1,588.0400000000373,1
3780,103,2,single,2,2,0,0,1,linken,1,563.1999999999534,1
3780,104,2,single,1,1,1,1,1,rechten,1,511.6799999999348,1
3780,105,1,single,2,1,1,1,1,linken,1,509.1799999999348,1
3780,106,1,single,1,1,1,0,1,rechten,1,696.4399999999441,1
3780,107,2,single,2,2,1,1,0,linken,1,542.3200000000652,1
3780,108,1,single,2,2,0,1,1,rechten,1,586.1399999998976,1
3780,109,2,single,2,1,1,1,1,rechten,0,672.9799999999814,1
3780,110,1,single,2,1,1,1,1,linken,1,519.8000000000466,1
3780,111,2,single,2,1,1,0,1,rechten,1,517.3200000000652,1
3780,112,1,single,2,1,1,0,1,linken,1,640.7399999999907,1
3780,113,1,single,1,1,1,1,1,linken,1,505.9399999999441,1
3780,114,1,single,1,2,1,0,0,linken,1,582.2399999999907,1
3780,115,2,single,2,1,0,0,0,rechten,1,467.0800000000745,1
3780,116,1,single,2,2,0,1,1,rechten,1,608.5800000000745,1
3780,117,2,single,2,1,1,1,1,linken,1,568.8000000000466,1
3780,118,2,single,1,2,1,0,0,rechten,1,517.3000000000466,1
3780,119,2,single,1,1,0,0,0,linken,1,733.8799999998882,1
3780,120,2,single,1,1,0,1,0,rechten,1,561.7399999999907,1
3780,121,1,single,2,1,0,1,0,linken,1,665.2199999999721,1
3780,122,1,single,1,2,0,1,1,rechten,1,528.8200000000652,1
3780,123,2,single,2,1,1,0,1,linken,0,618.6000000000931,1
3780,124,2,single,1,2,1,1,0,rechten,1,517.0600000000559,1
3780,125,1,single,2,1,0,1,0,rechten,1,577.5,1
3780,126,2,single,2,1,0,0,0,linken,1,680.4399999999441,1
3780,127,2,single,1,1,0,0,0,linken,1,575.9399999999441,1
3780,128,2,single,1,2,0,0,1,linken,0,505.7399999999907,1
3357,1,2,single,0,0,1,1,0,rechten,1,1514,1
3357,2,2,single,1,2,0,1,1,rechten,1,760,1
3357,3,1,single,2,1,1,1,1,linken,1,528,1
3357,4,1,single,1,1,1,1,1,rechten,1,619,1
3357,5,2,single,2,1,1,1,1,rechten,0,567,1
3357,6,2,single,1,2,1,1,0,linken,1,738,1
3357,7,2,single,1,2,0,1,1,linken,1,554,1
3357,8,1,single,2,2,1,1,0,linken,1,902,1
3357,9,2,single,2,2,0,1,1,linken,1,687,1
3357,10,1,single,2,1,1,1,1,linken,1,683,1
3357,11,2,single,2,2,1,0,0,rechten,1,1014,1
3357,12,2,single,1,2,0,1,1,rechten,1,554,1
3357,13,2,single,1,2,1,1,0,rechten,1,585,1
3357,14,2,single,1,1,0,1,0,rechten,1,546,1
3357,15,1,single,2,1,0,1,0,linken,1,801,1
3357,16,2,single,2,1,0,1,0,linken,1,727,1
3357,17,1,single,2,1,0,1,0,rechten,1,773,1
3357,18,2,single,2,1,0,1,0,linken,1,709,1
3357,19,2,single,1,1,0,1,0,linken,1,628,1
3357,20,2,single,1,2,0,0,1,rechten,1,853.0000000000582,1
3357,21,1,single,2,2,1,1,0,linken,1,1147,1
3357,22,1,single,1,1,0,0,0,rechten,1,656,1
3357,23,1,single,1,1,0,0,0,rechten,1,906,1
3357,24,1,single,1,1,0,0,0,rechten,1,712,1
3357,25,2,single,2,1,0,1,0,linken,1,614,1
3357,26,1,single,2,1,0,1,0,rechten,1,729,1
3357,27,2,single,2,2,0,1,1,linken,1,726,1
3357,28,1,single,2,1,1,1,1,linken,1,824,1
3357,29,1,single,1,1,1,1,1,linken,1,777,1
3357,30,1,single,1,1,1,0,1,rechten,1,688,1
3357,31,1,single,1,2,1,0,0,linken,1,758,1
3357,32,1,single,1,1,0,1,0,rechten,1,691,1
3357,33,1,single,1,2,0,0,1,linken,1,768,1
3357,34,1,single,1,1,1,0,1,linken,1,638,1
3357,35,1,single,1,1,1,0,1,rechten,1,749,1
3357,36,2,single,2,2,1,1,0,rechten,1,774,1
3357,37,2,single,1,2,0,1,1,rechten,1,596.0000000000582,1
3357,38,1,single,2,1,1,0,1,rechten,1,657,1
3357,39,1,single,1,2,1,0,0,linken,1,1170.0000000000582,1
3357,40,1,single,1,1,0,0,0,rechten,1,637,1
3357,41,1,single,1,2,0,1,1,linken,0,671,1
3357,42,1,single,1,1,1,1,1,linken,1,658,1
3357,43,2,single,2,1,1,0,1,rechten,0,851,1
3357,44,2,single,1,1,1,0,1,linken,1,671,1
3357,45,2,single,1,1,1,0,1,linken,1,951,1
3357,46,1,single,2,2,1,1,0,linken,1,705.9999999999418,1
3357,47,2,single,2,2,0,1,1,rechten,1,782,1
3357,48,1,single,2,2,1,0,0,linken,1,668,1
3357,49,1,single,1,1,0,1,0,rechten,0,968.0000000000582,1
3357,50,2,single,2,2,0,0,1,rechten,1,1252,1
3357,51,1,single,2,2,1,0,0,rechten,1,1021,1
3357,52,2,single,2,1,0,1,0,linken,1,1345,1
3357,53,2,single,1,1,0,0,0,rechten,1,917,1
3357,54,2,single,1,2,0,1,1,linken,1,667.0000000001164,1
3357,55,2,single,1,2,1,0,0,linken,1,919,1
3357,56,2,single,1,2,0,0,1,rechten,1,1170.0000000001164,1
3357,57,1,single,2,2,1,0,0,linken,1,696,1
3357,58,2,single,2,2,0,1,1,rechten,1,1074,1
3357,59,1,single,2,1,1,1,1,rechten,1,668,1
3357,60,2,single,2,1,1,1,1,linken,1,727,1
3357,61,1,single,2,2,1,0,0,linken,1,728,1
3357,62,2,single,2,1,0,0,0,rechten,1,1041,1
3357,63,1,single,2,2,0,0,1,linken,1,726,1
3357,64,2,single,2,1,1,1,1,linken,1,694,1
3357,65,2,single,1,2,1,0,0,linken,1,894,1
3357,66,1,single,2,2,0,1,1,rechten,1,735,1
3357,67,1,single,1,1,1,1,1,rechten,1,633,1
3357,68,1,single,1,1,1,0,1,linken,1,764,1
3357,69,2,single,2,2,1,0,0,linken,1,616,1
3357,70,2,single,1,1,0,1,0,rechten,0,572,1
3357,71,1,single,2,2,0,1,1,rechten,1,696,1
3357,72,2,single,2,2,1,1,0,linken,1,817,1
3357,73,1,single,2,2,0,0,1,rechten,1,823,1
3357,74,1,single,1,2,1,0,0,rechten,1,1010,1
3357,75,1,single,1,2,0,0,1,linken,1,698,1
3357,76,1,single,1,2,1,0,0,rechten,1,811,1
3357,77,2,single,2,1,0,0,0,linken,1,785,1
3357,78,2,single,1,2,0,0,1,linken,0,773,1
3357,79,1,single,2,1,1,0,1,rechten,1,847,1
3357,80,1,single,1,1,1,0,1,rechten,1,636,1
3357,81,2,single,2,1,1,0,1,linken,1,659,1
3357,82,1,single,2,1,1,0,1,rechten,1,677,1
3357,83,2,single,2,1,1,1,1,rechten,1,867.0000000001164,1
3357,84,1,single,2,1,1,1,1,rechten,1,677,1
3357,85,2,single,2,1,1,1,1,linken,1,935,1
3357,86,2,single,1,1,1,0,1,rechten,1,662,1
3357,87,2,single,1,1,1,0,1,linken,1,688,1
3357,88,2,single,1,1,1,0,1,linken,1,640,1
3357,89,2,single,1,2,1,0,0,rechten,1,1164,1
3357,90,1,single,2,1,0,1,0,rechten,1,979,1
3357,91,1,single,1,1,0,1,0,linken,1,711.0000000001164,1
3357,92,2,single,2,1,0,0,0,rechten,1,714,1
3357,93,2,single,1,2,0,0,1,rechten,1,896,1
3357,94,1,single,2,2,1,1,0,rechten,1,850,1
3357,95,2,single,2,1,0,0,0,rechten,0,781,1
3357,96,1,single,2,1,0,0,0,linken,1,790,1
3357,97,1,single,1,1,0,0,0,linken,1,957,1
3357,98,1,single,1,1,0,1,0,rechten,1,609,1
3357,99,1,single,1,1,0,1,0,linken,1,696,1
3357,100,1,single,1,2,0,1,1,linken,1,678,1
3357,101,1,single,1,1,1,0,1,linken,1,810.0000000001164,1
3357,102,2,single,2,2,1,1,0,linken,1,1622,1
3357,103,1,single,2,1,0,1,0,linken,1,813,1
3357,104,1,single,1,1,0,1,0,linken,1,902,1
3357,105,1,single,1,2,0,1,1,rechten,1,618,1
3357,106,2,single,2,2,1,0,0,linken,1,713,1
3357,107,1,single,2,2,0,1,1,rechten,1,678,1
3357,108,2,single,2,1,1,0,1,linken,0,906,1
3357,109,2,single,1,2,1,0,0,linken,1,889,1
3357,110,2,single,1,2,0,1,1,rechten,1,670.0000000001164,1
3357,111,1,single,2,2,1,0,0,rechten,1,657,1
3357,112,2,single,2,1,0,1,0,rechten,1,1348,1
3357,113,2,single,1,2,0,0,1,rechten,1,744,1
3357,114,2,single,1,2,1,0,0,rechten,1,1137,1
3357,115,1,single,2,1,0,0,0,linken,1,792,1
3357,116,2,single,2,2,0,0,1,rechten,1,1237,1
3357,117,1,single,2,1,1,0,1,rechten,1,1293,1
3357,118,2,single,2,2,1,1,0,rechten,0,1028,1
3357,119,2,single,1,1,0,1,0,rechten,1,852.0000000001164,1
3357,120,2,single,1,1,0,0,0,linken,1,650.0000000001164,1
3357,121,1,single,2,2,0,0,1,linken,1,655,1
3357,122,1,single,1,1,1,0,1,linken,1,773,1
3357,123,2,single,2,1,1,0,1,linken,1,1281,1
3357,124,2,single,1,2,1,0,0,rechten,1,856,1
3357,125,2,single,1,2,0,1,1,linken,1,822,1
3357,126,1,single,2,2,1,1,0,rechten,1,1033,1
3357,127,1,single,1,2,0,1,1,linken,1,707,1
3357,128,2,single,2,2,1,0,0,linken,1,707,1
3357,1,1,single,0,0,0,0,0,rechten,1,889,1
3357,2,2,single,2,1,0,1,0,linken,1,678,1
3357,3,2,single,1,1,0,0,0,linken,1,589,1
3357,4,1,single,2,1,0,0,0,rechten,1,652,1
3357,5,1,single,1,2,0,1,1,linken,1,630,1
3357,6,1,single,1,2,1,0,0,linken,1,647,1
3357,7,2,single,2,2,0,1,1,linken,1,687,1
3357,8,1,single,2,2,1,0,0,rechten,1,641,1
3357,9,1,single,1,2,0,1,1,rechten,1,558,1
3357,10,1,single,1,2,1,0,0,rechten,1,621,1
3357,11,2,single,2,2,0,0,1,rechten,1,663,1
3357,12,2,single,1,1,1,0,1,linken,1,574,1
3357,13,1,single,2,1,1,0,1,rechten,1,750,1
3357,14,1,single,1,1,1,1,1,linken,1,807,1
3357,15,2,single,2,2,1,1,0,rechten,1,680,1
3357,16,1,single,2,2,0,1,1,rechten,1,702.0000000001164,1
3357,17,2,single,2,1,1,1,1,rechten,0,1111,1
3357,18,1,single,2,1,1,1,1,rechten,1,694,1
3357,19,1,single,1,1,1,0,1,linken,1,659,1
3357,20,2,single,2,1,1,1,1,rechten,1,908,1
3357,21,2,single,1,2,1,0,0,rechten,1,754,1
3357,22,2,single,1,2,0,1,1,linken,1,738,1
3357,23,2,single,1,2,1,1,0,linken,1,909,1
3357,24,2,single,1,2,0,1,1,rechten,1,603,1
3357,25,1,single,2,2,1,0,0,linken,1,747,1
3357,26,2,single,2,1,0,1,0,rechten,0,912,1
3357,27,2,single,1,2,0,0,1,rechten,1,916,1
3357,28,2,single,1,1,1,0,1,rechten,1,920,1
3357,29,1,single,2,2,1,1,0,rechten,1,751,1
3357,30,2,single,2,1,0,0,0,rechten,1,855,1
3357,31,1,single,2,1,0,0,0,linken,1,785,1
3357,32,2,single,2,2,0,1,1,linken,1,682,1
3357,33,2,single,1,1,1,0,1,rechten,1,637,1
3357,34,2,single,1,2,1,0,0,rechten,1,1082,1
3357,35,2,single,1,2,0,0,1,linken,0,741,1
3357,36,2,single,1,1,1,0,1,linken,1,783,1
3357,37,1,single,2,2,1,1,0,rechten,1,690,1
3357,38,1,single,1,2,0,0,1,linken,1,607,1
3357,39,1,single,1,2,1,0,0,linken,1,699,1
3357,40,1,single,1,1,0,0,0,linken,1,704,1
3357,41,2,single,2,1,0,1,0,rechten,1,738,1
3357,42,2,single,1,2,0,1,1,linken,1,574,1
3357,43,1,single,2,2,1,1,0,linken,1,709,1
3357,44,2,single,2,2,0,1,1,rechten,1,661.0000000001164,1
3357,45,1,single,2,1,1,0,1,rechten,1,736,1
3357,46,1,single,1,2,1,0,0,linken,1,969,1
3357,47,2,single,2,2,0,0,1,rechten,0,647,1
3357,48,1,single,2,2,1,1,0,rechten,1,695,1
3357,49,1,single,1,2,0,1,1,linken,1,631,1
3357,50,1,single,1,2,1,1,0,rechten,1,721,1
3357,51,2,single,2,1,0,1,0,rechten,1,1065,1
3357,52,1,single,2,1,0,0,0,linken,1,740,1
3357,53,1,single,1,2,0,1,1,linken,1,615,1
3357,54,1,single,1,1,1,1,1,linken,1,626,1
3357,55,2,single,2,1,1,1,1,linken,1,1235.0000000001164,1
3357,56,2,single,1,1,1,0,1,linken,1,657,1
3357,57,2,single,1,1,1,0,1,linken,1,728,1
3357,58,2,single,1,2,1,0,0,rechten,1,777,1
3357,59,1,single,2,1,0,1,0,rechten,1,646,1
3357,60,1,single,1,1,0,0,0,rechten,1,687,1
3357,61,1,single,1,2,0,0,1,rechten,1,567.0000000001164,1
3357,62,1,single,1,2,1,0,0,linken,1,560,1
3357,63,1,single,1,2,0,0,1,rechten,1,597,1
3357,64,1,single,1,2,1,1,0,linken,1,663.0000000001164,1
3357,65,2,single,2,1,0,0,0,rechten,1,813,1
3357,66,1,single,2,2,0,1,1,linken,1,636.0000000001164,1
3357,67,2,single,2,2,1,0,0,rechten,1,519,1
3357,68,1,single,2,2,0,0,1,rechten,1,646,1
3357,69,2,single,2,2,1,1,0,rechten,1,648,1
3357,70,1,single,2,1,0,1,0,linken,1,603,1
3357,71,1,single,1,2,0,0,1,linken,1,610,1
3357,72,2,single,2,2,1,0,0,linken,1,608,1
3357,73,1,single,2,1,0,1,0,linken,1,681,1
3357,74,1,single,1,2,0,1,1,linken,1,584,1
3357,75,1,single,1,1,1,0,1,linken,1,687,1
3357,76,1,single,1,2,1,0,0,rechten,1,740.0000000001164,1
3357,77,2,single,2,1,0,1,0,linken,1,632,1
3357,78,1,single,2,1,0,1,0,rechten,1,679,1
3357,79,1,single,1,2,0,1,1,rechten,1,537,1
3357,80,2,single,2,1,1,0,1,rechten,1,730,1
3357,81,2,single,1,1,1,1,1,rechten,1,540,1
3357,82,2,single,1,1,1,1,1,rechten,1,578,1
3357,83,1,single,2,2,1,1,0,linken,1,738,1
3357,84,2,single,2,1,0,1,0,linken,1,1115,1
3357,85,2,single,1,2,0,1,1,rechten,1,598,1
3357,86,1,single,2,1,1,0,1,linken,1,669.0000000001164,1
3357,87,2,single,2,1,1,1,1,rechten,0,663.0000000001164,1
3357,88,2,single,1,1,1,0,1,linken,1,670.0000000001164,1
3357,89,1,single,2,1,1,1,1,rechten,1,594,1
3357,90,1,single,1,1,1,0,1,rechten,1,679,1
3357,91,2,single,2,1,1,1,1,linken,1,516,1
3357,92,1,single,2,1,1,1,1,rechten,1,686.0000000001164,1
3357,93,2,single,2,1,1,0,1,linken,1,639,1
3357,94,2,single,1,1,1,1,1,linken,1,652,1
3357,95,2,single,1,2,1,0,0,linken,1,677,1
3357,96,2,single,1,1,0,1,0,rechten,1,713,1
3357,97,2,single,1,1,0,0,0,linken,1,735,1
3357,98,2,single,1,2,0,0,1,rechten,1,786,1
3357,99,1,single,2,2,1,1,0,linken,1,625,1
3357,100,2,single,2,1,0,0,0,linken,1,1226,1
3357,101,1,single,2,1,0,0,0,rechten,1,677.0000000001164,1
3357,102,1,single,1,1,0,1,0,rechten,1,504,1
3357,103,1,single,1,1,0,1,0,linken,1,509,1
3357,104,2,single,2,1,0,1,0,linken,1,615,1
3357,105,1,single,2,2,0,1,1,linken,1,545,1
3357,106,2,single,2,1,1,1,1,linken,1,747.0000000001164,1
3357,107,2,single,1,1,1,0,1,linken,1,658,1
3357,108,1,single,2,1,1,0,1,rechten,1,634,1
3357,109,2,single,2,2,1,1,0,linken,1,779,1
3357,110,1,single,2,1,0,1,0,linken,1,655,1
3357,111,1,single,1,2,0,0,1,rechten,1,583,1
3357,112,1,single,1,1,1,0,1,linken,1,693,1
3357,113,1,single,1,2,1,0,0,rechten,1,634,1
3357,114,2,single,2,1,0,0,0,rechten,1,1172,1
3357,115,2,single,1,1,0,1,0,linken,1,534.0000000001164,1
3357,116,1,single,2,2,0,0,1,linken,1,930,1
3357,117,2,single,2,2,1,0,0,rechten,1,1390,1
3357,118,1,single,2,2,0,1,1,rechten,1,734.0000000001164,1
3357,119,2,single,2,2,1,1,0,rechten,1,921,1
3357,120,2,single,1,1,0,0,0,linken,1,658,1
3357,121,2,single,1,1,0,1,0,rechten,1,552,1
3357,122,2,single,1,1,0,0,0,linken,0,594,1
3357,123,2,single,1,1,0,0,0,linken,1,725,1
3357,124,2,single,1,2,0,0,1,rechten,1,929,1
3357,125,1,single,2,2,1,1,0,rechten,1,710,1
3357,126,2,single,2,1,0,1,0,linken,1,562,1
3357,127,1,single,2,2,0,1,1,rechten,1,589.0000000001164,1
3357,128,1,single,1,1,1,0,1,linken,1,755,1
3357,1,1,single,0,0,1,1,0,rechten,1,657,1
3357,2,1,single,1,2,0,1,1,linken,1,611,1
3357,3,1,single,1,1,1,0,1,linken,1,618,1
3357,4,2,single,2,2,1,0,0,linken,1,603,1
3357,5,1,single,2,1,0,1,0,linken,1,777,1
3357,6,2,single,2,1,0,1,0,linken,1,508,1
3357,7,1,single,2,2,0,1,1,rechten,1,598,1
3357,8,1,single,1,2,1,1,0,linken,1,651,1
3357,9,2,single,2,1,0,1,0,rechten,1,664,1
3357,10,2,single,1,2,0,0,1,linken,1,574,1
3357,11,1,single,2,1,1,0,1,rechten,1,786,1
3357,12,1,single,1,1,1,0,1,linken,1,652,1
3357,13,1,single,1,2,1,1,0,rechten,1,595,1
3357,14,1,single,1,1,0,0,0,linken,1,533,1
3357,15,2,single,2,1,0,0,0,rechten,1,822,1
3357,16,1,single,2,2,0,0,1,linken,1,884,1
3357,17,2,single,2,1,1,0,1,linken,1,721,1
3357,18,2,single,1,2,1,0,0,rechten,1,996,1
3357,19,1,single,2,1,0,0,0,linken,1,781,1
3357,20,2,single,2,2,0,1,1,rechten,1,590,1
3357,21,1,single,2,1,1,1,1,rechten,1,773,1
3357,22,2,single,2,2,1,1,0,rechten,1,777,1
3357,23,1,single,2,2,0,0,1,rechten,1,696,1
3357,24,2,single,2,1,1,1,1,rechten,1,540,1
3357,25,2,single,1,1,1,1,1,rechten,1,544,1
3357,26,2,single,1,1,1,1,1,linken,1,495,1
3357,27,2,single,1,1,1,0,1,rechten,1,608,1
3357,28,1,single,2,2,1,0,0,rechten,1,627,1
3357,29,2,single,2,1,0,0,0,rechten,0,739.0000000001164,1
3357,30,2,single,1,2,0,1,1,linken,1,763,1
3357,31,2,single,1,1,1,1,1,rechten,1,552.0000000001164,1
3357,32,1,single,2,1,1,0,1,rechten,1,591,1
3357,33,1,single,1,2,1,0,0,linken,1,675.0000000001164,1
3357,34,2,single,2,1,0,1,0,linken,1,960,1
3357,35,2,single,1,1,0,1,0,linken,1,780,1
3357,36,1,single,2,1,0,1,0,linken,1,870,1
3357,37,2,single,2,2,0,1,1,rechten,1,588,1
3357,38,2,single,1,2,1,1,0,rechten,1,628,1
3357,39,2,single,1,2,0,1,1,rechten,1,603,1
3357,40,1,single,2,1,1,1,1,linken,1,633,1
3357,41,2,single,2,2,1,0,0,rechten,1,770,1
3357,42,1,single,2,1,0,1,0,rechten,1,1131,1
3357,43,2,single,2,1,0,0,0,linken,1,837,1
3357,44,1,single,2,1,0,0,0,rechten,1,710.0000000002328,1
3357,45,1,single,1,1,0,1,0,linken,1,625,1
3357,46,2,single,2,1,0,0,0,linken,1,776,1
3357,47,2,single,1,1,0,0,0,linken,1,587,1
3357,48,2,single,1,2,0,0,1,linken,1,569,1
3357,49,1,single,2,1,1,1,1,rechten,1,586,1
3357,50,1,single,1,1,1,0,1,linken,1,635,1
3357,51,2,single,2,1,1,0,1,linken,1,679,1
3357,52,2,single,1,2,1,1,0,rechten,1,571,1
3357,53,1,single,2,1,0,0,0,rechten,1,595,1
3357,54,1,single,1,1,0,0,0,linken,1,711,1
3357,55,1,single,1,2,0,1,1,rechten,1,687,1
3357,56,2,single,2,1,1,1,1,linken,1,532,1
3357,57,1,single,2,2,1,0,0,rechten,1,606,1
3357,58,1,single,1,2,0,0,1,rechten,1,708,1
3357,59,1,single,1,1,1,0,1,rechten,1,553,1
3357,60,1,single,1,2,1,1,0,linken,1,749,1
3357,61,2,single,2,1,0,1,0,rechten,1,871,1
3357,62,1,single,2,1,0,0,0,rechten,1,628,1
3357,63,2,single,2,1,0,0,0,linken,1,1184,1
3357,64,1,single,2,1,0,1,0,rechten,1,728,1
3357,65,2,single,2,2,0,1,1,linken,1,649,1
3357,66,2,single,1,2,1,0,0,rechten,1,542,1
3357,67,2,single,1,2,0,1,1,linken,1,577,1
3357,68,2,single,1,1,1,1,1,rechten,1,548,1
3357,69,2,single,1,2,1,0,0,linken,1,729,1
3357,70,1,single,2,2,0,1,1,rechten,1,595,1
3357,71,1,single,1,2,1,1,0,linken,1,635,1
3357,72,1,single,1,1,0,0,0,linken,1,918,1
3357,73,1,single,1,1,0,0,0,linken,1,710,1
3357,74,2,single,2,2,0,0,1,linken,0,623,1
3357,75,1,single,2,1,1,1,1,linken,1,580,1
3357,76,1,single,1,1,1,1,1,rechten,1,1029,1
3357,77,2,single,2,2,1,1,0,linken,1,684,1
3357,78,1,single,2,2,0,0,1,linken,1,839,1
3357,79,1,single,1,1,1,1,1,linken,1,536,1
3357,80,2,single,2,1,1,1,1,linken,1,577,1
3357,81,2,single,1,1,1,1,1,rechten,1,576,1
3357,82,2,single,1,1,1,0,1,linken,1,722,1
3357,83,1,single,2,2,1,0,0,rechten,1,600.0000000002328,1
3357,84,1,single,1,1,0,1,0,linken,1,853,1
3357,85,2,single,2,1,0,1,0,rechten,1,667,1
3357,86,1,single,2,2,0,0,1,linken,1,629,1
3357,87,1,single,1,2,1,1,0,rechten,1,701,1
3357,88,1,single,1,2,0,0,1,linken,1,594,1
3357,89,1,single,1,2,1,1,0,rechten,1,656,1
3357,90,2,single,2,1,0,1,0,rechten,1,1048,1
3357,91,2,single,1,2,0,0,1,linken,1,562,1
3357,92,2,single,1,2,1,1,0,rechten,1,724,1
3357,93,2,single,1,1,0,1,0,linken,1,589,1
3357,94,1,single,2,2,0,1,1,rechten,1,689.0000000002328,1
3357,95,1,single,1,2,1,0,0,linken,1,871.0000000002328,1
3357,96,2,single,2,1,0,0,0,rechten,1,847,1
3357,97,2,single,1,1,0,0,0,linken,1,795,1
3357,98,1,single,2,2,0,0,1,rechten,1,660,1
3357,99,1,single,1,1,1,0,1,linken,1,697,1
3357,100,2,single,2,2,1,1,0,linken,0,810,1
3357,101,2,single,1,2,0,0,1,rechten,1,836,1
3357,102,2,single,1,1,1,1,1,linken,1,539,1
3357,103,2,single,1,2,1,0,0,rechten,1,621,1
3357,104,1,single,2,1,0,1,0,rechten,1,641,1
3357,105,2,single,2,2,0,0,1,rechten,1,771.0000000002328,1
3357,106,1,single,2,1,1,1,1,rechten,1,910,1
3357,107,1,single,1,2,1,0,0,linken,1,588,1
3357,108,2,single,2,1,0,1,0,linken,1,673,1
3357,109,2,single,1,1,0,0,0,linken,1,593,1
3357,110,1,single,2,2,0,1,1,linken,1,591,1
3357,111,2,single,2,1,1,0,1,linken,1,589,1
3357,112,1,single,2,1,1,0,1,rechten,1,677,1
3357,113,2,single,2,1,1,0,1,rechten,1,661,1
3357,114,1,single,2,1,1,0,1,rechten,1,647,1
3357,115,1,single,1,2,1,1,0,rechten,1,570.0000000002328,1
3357,116,1,single,1,2,0,1,1,linken,1,540,1
3357,117,1,single,1,2,1,0,0,rechten,1,605.0000000002328,1
3357,118,2,single,2,1,0,0,0,rechten,1,700,1
3357,119,2,single,1,2,0,0,1,rechten,1,539,1
3357,120,2,single,1,2,1,1,0,linken,1,650,1
3357,121,2,single,1,2,0,0,1,rechten,1,822,1
3357,122,2,single,1,1,1,0,1,rechten,1,604,1
3357,123,2,single,1,1,1,1,1,linken,1,607,1
3357,124,1,single,2,1,1,1,1,linken,1,677,1
3357,125,1,single,1,2,1,1,0,linken,1,850,1
3357,126,1,single,1,2,0,1,1,linken,1,609.0000000002328,1
3357,127,2,single,2,1,1,0,1,rechten,1,662,1
3357,128,1,single,2,2,1,0,0,rechten,1,821,1
3357,1,1,single,0,0,0,1,0,rechten,1,541,1
3357,2,1,single,1,2,0,0,1,rechten,1,504,1
3357,3,1,single,1,2,1,0,0,linken,1,696,1
3357,4,2,single,2,1,0,0,0,linken,1,627,1
3357,5,1,single,2,2,0,0,1,rechten,1,608,1
3357,6,2,single,2,2,1,1,0,rechten,1,540,1
3357,7,1,single,2,1,0,1,0,linken,1,557,1
3357,8,1,single,1,2,0,0,1,rechten,1,597,1
3357,9,2,single,2,1,1,1,1,linken,1,576,1
3357,10,1,single,2,1,1,0,1,rechten,1,551,1
3357,11,2,single,2,2,1,0,0,rechten,1,541,1
3357,12,1,single,2,2,0,0,1,linken,1,772,1
3357,13,2,single,2,2,1,0,0,rechten,1,576,1
3357,14,2,single,1,2,0,0,1,linken,1,577,1
3357,15,1,single,2,1,1,0,1,linken,1,846,1
3357,16,1,single,1,2,1,1,0,rechten,1,756,1
3357,17,2,single,2,2,0,1,1,linken,1,759,1
3357,18,2,single,1,2,1,0,0,linken,1,600,1
3357,19,1,single,2,1,0,1,0,rechten,1,629,1
3357,20,2,single,2,2,0,1,1,linken,1,631,1
3357,21,1,single,2,2,1,1,0,linken,1,644,1
3357,22,2,single,2,1,0,1,0,rechten,1,1751,1
3357,23,2,single,1,1,0,0,0,rechten,1,671.0000000002328,1
3357,24,2,single,1,2,0,0,1,linken,1,768,1
3357,25,1,single,2,1,1,1,1,linken,1,961,1
3357,26,2,single,2,2,1,0,0,linken,0,619,1
3357,27,2,single,1,2,0,1,1,rechten,1,883.0000000002328,1
3357,28,1,single,2,1,1,0,1,linken,1,573,1
3357,29,1,single,1,2,1,0,0,rechten,1,577,1
3357,30,2,single,2,2,0,0,1,rechten,1,981,1
3357,31,2,single,1,2,1,0,0,rechten,1,669,1
3357,32,2,single,1,1,0,1,0,linken,1,601.0000000002328,1
3357,33,1,single,2,2,0,1,1,rechten,1,1064,1
3357,34,2,single,2,2,1,0,0,rechten,1,740,1
3357,35,1,single,2,1,0,0,0,rechten,1,592,1
3357,36,2,single,2,2,0,1,1,rechten,1,746,1
3357,37,2,single,1,2,1,0,0,linken,1,572,1
3357,38,1,single,2,2,0,1,1,rechten,1,609,1
3357,39,1,single,1,1,1,1,1,linken,1,621,1
3357,40,2,single,2,2,1,1,0,rechten,1,598,1
3357,41,2,single,1,2,0,1,1,rechten,1,598.0000000002328,1
3357,42,1,single,2,2,1,0,0,rechten,1,622,1
3357,43,1,single,1,1,0,0,0,linken,1,725,1
3357,44,2,single,2,2,0,0,1,linken,1,597,1
3357,45,2,single,1,1,1,0,1,linken,1,513,1
3357,46,1,single,2,1,1,0,1,linken,1,621,1
3357,47,2,single,2,2,1,0,0,linken,1,538,1
3357,48,1,single,2,1,0,0,0,linken,1,661,1
3357,49,1,single,1,2,0,1,1,linken,1,523,1
3357,50,2,single,2,1,1,1,1,rechten,1,614,1
3357,51,2,single,1,2,1,1,0,linken,0,600,1
3357,52,1,single,2,2,0,0,1,linken,1,777,1
3357,53,2,single,2,1,1,1,1,rechten,1,589,1
3357,54,2,single,1,1,1,0,1,rechten,0,665,1
3357,55,2,single,1,2,1,0,0,linken,1,1353,1
3357,56,2,single,1,2,0,1,1,rechten,1,589.0000000002328,1
3357,57,1,single,2,2,1,1,0,linken,1,613,1
3357,58,1,single,1,2,0,1,1,rechten,1,528,1
3357,59,2,single,2,1,1,0,1,rechten,1,949.0000000002328,1
3357,60,2,single,1,2,1,1,0,linken,1,591,1
3357,61,1,single,2,1,0,0,0,rechten,1,579,1
3357,62,2,single,2,2,0,0,1,linken,1,618,1
3357,63,1,single,2,1,1,1,1,linken,1,869,1
3357,64,2,single,2,1,1,1,1,linken,1,646,1
3357,65,1,single,2,2,1,1,0,rechten,1,598,1
3357,66,1,single,1,1,0,1,0,rechten,1,556.0000000002328,1
3357,67,1,single,1,1,0,0,0,linken,1,546,1
3357,68,2,single,2,2,0,0,1,rechten,1,749,1
3357,69,2,single,1,2,1,0,0,linken,1,767,1
3357,70,2,single,1,2,0,1,1,rechten,1,751,1
3357,71,2,single,1,1,1,1,1,linken,1,657,1
3357,72,1,single,2,1,1,1,1,linken,1,685,1
3357,73,1,single,1,2,1,0,0,linken,1,656,1
3357,74,1,single,1,1,0,1,0,linken,1,859,1
3357,75,1,single,1,1,0,0,0,linken,1,660,1
3357,76,1,single,1,2,0,0,1,linken,1,781,1
3357,77,2,single,2,2,1,1,0,linken,1,659,1
3357,78,2,single,1,1,0,1,0,linken,1,749,1
3357,79,1,single,2,2,0,1,1,rechten,1,685,1
3357,80,1,single,1,2,1,1,0,linken,1,701,1
3357,81,1,single,1,1,0,0,0,rechten,1,627,1
3357,82,2,single,2,1,0,1,0,rechten,1,738.0000000002328,1
3357,83,2,single,1,2,0,0,1,linken,1,532,1
3357,84,2,single,1,2,1,1,0,rechten,1,668,1
3357,85,2,single,1,2,0,0,1,rechten,1,739.0000000002328,1
3357,86,1,single,2,1,1,0,1,linken,1,686.0000000002328,1
3357,87,2,single,2,1,1,1,1,rechten,1,653.0000000002328,1
3357,88,1,single,2,2,1,1,0,linken,1,756,1
3357,89,2,single,2,1,0,1,0,linken,0,756,1
3357,90,2,single,1,1,0,0,0,linken,1,717.0000000002328,1
3357,91,2,single,1,1,0,1,0,rechten,1,642.0000000002328,1
3357,92,1,single,2,1,0,1,0,rechten,1,656,1
3357,93,2,single,2,1,0,0,0,rechten,1,709,1
3357,94,2,single,1,2,0,0,1,rechten,1,692,1
3357,95,1,single,2,1,1,1,1,rechten,1,606,1
3357,96,1,single,1,1,1,1,1,rechten,1,558,1
3357,97,1,single,1,2,1,1,0,linken,1,696,1
3357,98,1,single,1,2,0,1,1,rechten,1,616,1
3357,99,1,single,1,2,1,0,0,linken,1,851,1
3357,100,1,single,1,2,0,0,1,rechten,1,788,1
3357,101,2,single,2,1,1,0,1,rechten,1,697,1
3357,102,2,single,1,2,1,1,0,linken,1,736,1
3357,103,1,single,2,1,0,0,0,linken,1,838.0000000002328,1
3357,104,2,single,2,2,0,1,1,linken,1,1007,1
3357,105,1,single,2,2,1,1,0,rechten,1,663.0000000002328,1
3357,106,1,single,1,1,0,0,0,rechten,1,618,1
3357,107,2,single,2,1,0,1,0,rechten,1,666,1
3357,108,2,single,1,1,0,0,0,rechten,1,584,1
3357,109,1,single,2,1,0,0,0,rechten,1,567,1
3357,110,1,single,1,2,0,0,1,rechten,0,647,1
3357,111,1,single,1,2,1,0,0,rechten,1,645,1
3357,112,1,single,1,1,0,1,0,rechten,1,711,1
3357,113,2,single,2,2,0,1,1,linken,1,753,1
3357,114,1,single,2,1,1,0,1,rechten,1,645,1
3357,115,2,single,2,2,1,1,0,linken,1,605,1
3357,116,1,single,2,1,0,1,0,linken,1,682,1
3357,117,1,single,1,2,0,1,1,rechten,1,712,1
3357,118,1,single,1,1,1,1,1,linken,1,565.0000000002328,1
3357,119,2,single,2,1,1,0,1,rechten,0,1005,1
3357,120,2,single,1,1,1,0,1,linken,1,1804,1
3357,121,2,single,1,2,1,0,0,rechten,1,712,1
3357,122,2,single,1,1,0,1,0,rechten,1,612,1
3357,123,2,single,1,2,0,1,1,linken,1,570,1
3357,124,2,single,1,1,1,0,1,linken,1,733.0000000002328,1
3357,125,1,single,2,1,1,1,1,linken,1,639,1
3357,126,1,single,1,1,1,1,1,linken,1,558,1
3357,127,1,single,1,1,1,0,1,linken,1,618,1
3357,128,1,single,1,1,1,0,1,rechten,1,661,1
3762,1,2,single,0,0,1,1,0,linken,1,1381,1
3762,2,1,single,2,1,0,0,0,linken,1,1385,1
3762,3,2,single,2,2,0,0,1,rechten,1,1236,1
3762,4,1,single,2,2,1,0,0,rechten,1,1021,1
3762,5,2,single,2,2,0,1,1,linken,1,1007.0000000000582,1
3762,6,2,single,1,1,1,1,1,rechten,1,1169,1
3762,7,1,single,2,2,1,1,0,rechten,1,1996.0000000000582,1
3762,8,2,single,2,1,0,0,0,rechten,1,1027,1
3762,9,2,single,1,2,0,1,1,rechten,1,892.0000000000582,1
3762,10,2,single,1,2,1,0,0,rechten,1,744,1
3762,11,2,single,1,2,0,1,1,rechten,1,945,1
3762,12,1,single,2,2,1,1,0,linken,1,794,1
3762,13,2,single,2,1,0,0,0,rechten,1,882,1
3762,14,1,single,2,2,0,0,1,rechten,1,774,1
3762,15,2,single,2,2,1,0,0,linken,1,810,1
3762,16,2,single,1,2,0,0,1,rechten,1,1418,1
3762,17,1,single,2,2,1,0,0,linken,1,847,1
3762,18,2,single,2,2,0,1,1,linken,1,855,1
3762,19,2,single,1,1,1,0,1,rechten,1,784,1
3762,20,1,single,2,1,1,1,1,linken,1,695,1
3762,21,1,single,1,1,1,1,1,linken,1,714,1
3762,22,1,single,1,1,1,0,1,linken,1,785,1
3762,23,2,single,2,2,1,0,0,linken,1,966,1
3762,24,1,single,2,1,0,1,0,rechten,1,780,1
3762,25,1,single,1,2,0,0,1,linken,1,874,1
3762,26,2,single,2,2,1,0,0,linken,1,1612,1
3762,27,2,single,1,2,0,1,1,rechten,1,784,1
3762,28,2,single,1,1,1,0,1,linken,1,799.0000000000582,1
3762,29,1,single,2,2,1,1,0,linken,1,963,1
3762,30,2,single,2,2,0,0,1,linken,1,979,1
3762,31,2,single,1,1,1,0,1,rechten,1,1123,1
3762,32,2,single,1,1,1,0,1,linken,1,863,1
3762,33,2,single,1,1,1,0,1,rechten,1,934.0000000000582,1
3762,34,1,single,2,1,1,1,1,linken,1,667,1
3762,35,2,single,2,2,1,0,0,rechten,1,943.0000000001164,1
3762,36,2,single,1,1,0,0,0,linken,1,894.0000000001164,1
3762,37,1,single,2,2,0,1,1,rechten,1,858,1
3762,38,2,single,2,2,1,1,0,rechten,1,857.0000000001164,1
3762,39,2,single,1,1,0,0,0,linken,1,710,1
3762,40,1,single,2,1,0,0,0,rechten,1,1424,1
3762,41,1,single,1,2,0,0,1,linken,1,1057.0000000001164,1
3762,42,1,single,1,1,1,1,1,rechten,1,777,1
3762,43,2,single,2,2,1,1,0,rechten,0,1081,1
3762,44,1,single,2,2,0,1,1,linken,1,741,1
3762,45,2,single,2,1,1,0,1,linken,1,1551,1
3762,46,2,single,1,2,1,1,0,rechten,1,1524,1
3762,47,1,single,2,1,0,0,0,rechten,1,854,1
3762,48,1,single,1,2,0,0,1,linken,1,696,1
3762,49,2,single,2,1,1,0,1,rechten,1,1042,1
3762,50,2,single,1,2,1,0,0,rechten,1,895,1
3762,51,1,single,2,1,0,1,0,linken,1,690,1
3762,52,1,single,1,2,0,1,1,rechten,1,741,1
3762,53,1,single,1,1,1,0,1,linken,1,655,1
3762,54,1,single,1,1,1,0,1,rechten,1,643,1
3762,55,2,single,2,2,1,1,0,rechten,1,864,1
3762,56,2,single,1,1,0,1,0,linken,1,684,1
3762,57,1,single,2,2,0,1,1,rechten,1,793,1
3762,58,1,single,1,2,1,1,0,rechten,1,733,1
3762,59,1,single,1,1,0,0,0,linken,1,834,1
3762,60,1,single,1,1,0,0,0,rechten,1,810,1
3762,61,1,single,1,1,0,0,0,linken,1,879,1
3762,62,1,single,1,2,0,0,1,rechten,1,747,1
3762,63,1,single,1,1,1,0,1,linken,1,889,1
3762,64,1,single,1,1,1,1,1,linken,1,687,1
3762,65,2,single,2,1,1,0,1,linken,1,838.0000000001164,1
3762,66,2,single,1,2,1,1,0,rechten,1,683.0000000001164,1
3762,67,2,single,1,2,0,1,1,linken,1,1635,1
3762,68,2,single,1,2,1,0,0,rechten,1,1043,1
3762,69,1,single,2,2,0,0,1,linken,1,713,1
3762,70,2,single,2,1,1,1,1,rechten,1,787,1
3762,71,1,single,2,1,1,0,1,rechten,1,818,1
3762,72,1,single,1,1,1,1,1,linken,1,838,1
3762,73,1,single,1,2,1,1,0,linken,1,1051,1
3762,74,2,single,2,1,0,1,0,linken,1,1201,1
3762,75,2,single,1,1,0,0,0,linken,1,826.0000000001164,1
3762,76,2,single,1,1,0,0,0,rechten,1,747,1
3762,77,1,single,2,1,0,0,0,rechten,1,1098,1
3762,78,1,single,1,2,0,1,1,rechten,1,741,1
3762,79,1,single,1,1,1,0,1,linken,1,629,1
3762,80,1,single,1,2,1,1,0,linken,1,771,1
3762,81,1,single,1,2,0,0,1,rechten,1,702,1
3762,82,2,single,2,2,1,1,0,linken,1,768,1
3762,83,1,single,2,1,0,0,0,rechten,1,1703.0000000001164,1
3762,84,2,single,2,2,0,1,1,linken,1,659,1
3762,85,1,single,2,2,1,0,0,linken,1,883,1
3762,86,1,single,1,1,0,0,0,rechten,1,735,1
3762,87,2,single,2,2,0,0,1,linken,1,1272,1
3762,88,2,single,1,1,1,1,1,linken,1,644,1
3762,89,2,single,1,1,1,0,1,linken,1,673,1
3762,90,2,single,1,1,1,0,1,rechten,1,837,1
3762,91,1,single,2,2,1,1,0,rechten,1,672,1
3762,92,1,single,1,2,0,0,1,rechten,1,668,1
3762,93,2,single,2,1,1,1,1,rechten,1,631,1
3762,94,1,single,2,2,1,1,0,linken,1,580,1
3762,95,2,single,2,2,0,0,1,rechten,1,807.0000000001164,1
3762,96,2,single,1,2,1,1,0,linken,1,731,1
3762,97,1,single,2,1,0,0,0,rechten,1,797.0000000001164,1
3762,98,2,single,2,2,0,1,1,linken,1,689,1
3762,99,2,single,1,2,1,1,0,linken,1,686,1
3762,100,2,single,1,2,0,0,1,linken,1,790,1
3762,101,1,single,2,1,1,0,1,rechten,1,678,1
3762,102,1,single,1,2,1,1,0,linken,1,881,1
3762,103,2,single,2,1,0,0,0,rechten,1,1176,1
3762,104,1,single,2,1,0,1,0,rechten,1,692,1
3762,105,1,single,1,2,0,0,1,rechten,0,1061,1
3762,106,2,single,2,2,1,0,0,linken,1,881,1
3762,107,1,single,2,1,0,0,0,linken,1,1683,1
3762,108,2,single,2,1,0,1,0,linken,1,765,1
3762,109,2,single,1,1,0,0,0,linken,1,797,1
3762,110,1,single,2,1,0,0,0,linken,1,740.0000000001164,1
3762,111,1,single,1,2,0,1,1,linken,1,617.0000000001164,1
3762,112,2,single,2,1,1,1,1,rechten,1,761,1
3762,113,1,single,2,2,1,1,0,rechten,1,546,1
3762,114,1,single,1,1,0,0,0,linken,1,721.0000000001164,1
3762,115,1,single,1,2,0,1,1,linken,1,616,1
3762,116,2,single,2,1,1,1,1,linken,1,694,1
3762,117,2,single,1,2,1,1,0,rechten,1,748,1
3762,118,1,single,2,2,0,1,1,rechten,1,526,1
3762,119,1,single,1,2,1,1,0,rechten,1,1041,1
3762,120,2,single,2,1,0,1,0,rechten,0,860,1
3762,121,1,single,2,2,0,1,1,rechten,1,594,1
3762,122,1,single,1,2,1,1,0,linken,1,919,1
3762,123,1,single,1,1,0,1,0,rechten,1,665,1
3762,124,2,single,2,2,0,1,1,linken,1,618,1
3762,125,1,single,2,1,1,1,1,rechten,1,600,1
3762,126,2,single,2,2,1,1,0,linken,1,1044,1
3762,127,2,single,1,2,0,1,1,rechten,1,696,1
3762,128,2,single,1,2,1,1,0,rechten,1,648,1
3762,1,1,single,0,0,0,1,0,rechten,1,893,1
3762,2,1,single,1,2,0,0,1,rechten,1,599,1
3762,3,1,single,1,1,1,0,1,linken,1,874.0000000001164,1
3762,4,1,single,1,2,1,0,0,rechten,1,687,1
3762,5,2,single,2,1,0,1,0,linken,1,668,1
3762,6,1,single,2,1,0,0,0,rechten,1,635,1
3762,7,2,single,2,1,0,1,0,linken,1,634,1
3762,8,2,single,1,1,0,1,0,linken,1,739,1
3762,9,1,single,2,2,0,0,1,linken,1,702,1
3762,10,1,single,1,1,1,0,1,rechten,0,880,1
3762,11,1,single,1,2,1,0,0,linken,1,712,1
3762,12,1,single,1,2,0,0,1,linken,1,975,1
3762,13,1,single,1,2,1,1,0,rechten,1,701,1
3762,14,2,single,2,1,0,1,0,rechten,1,1290,1
3762,15,1,single,2,2,0,0,1,rechten,1,715.0000000001164,1
3762,16,1,single,1,1,1,0,1,rechten,1,694,1
3762,17,1,single,1,1,1,0,1,rechten,1,762,1
3762,18,1,single,1,2,1,1,0,linken,1,851.0000000001164,1
3762,19,2,single,2,1,0,0,0,rechten,1,1222,1
3762,20,1,single,2,1,0,0,0,linken,1,704,1
3762,21,1,single,1,2,0,0,1,linken,1,640,1
3762,22,1,single,1,1,1,0,1,linken,1,658,1
3762,23,2,single,2,1,1,0,1,rechten,1,1097,1
3762,24,2,single,1,2,1,0,0,linken,1,741,1
3762,25,2,single,1,1,0,0,0,rechten,1,1073,1
3762,26,2,single,1,2,0,0,1,rechten,1,1050,1
3762,27,2,single,1,2,1,1,0,rechten,1,842,1
3762,28,1,single,2,2,0,1,1,rechten,1,674,1
3762,29,2,single,2,1,1,1,1,rechten,1,730,1
3762,30,1,single,2,2,1,0,0,rechten,1,803,1
3762,31,1,single,1,2,0,0,1,rechten,1,619,1
3762,32,1,single,1,2,1,1,0,rechten,1,658,1
3762,33,2,single,2,2,0,0,1,linken,1,910,1
3762,34,1,single,2,1,1,0,1,linken,1,702,1
3762,35,1,single,1,2,1,0,0,rechten,1,667,1
3762,36,2,single,2,2,0,1,1,rechten,1,704,1
3762,37,2,single,1,2,1,1,0,rechten,1,986.0000000001164,1
3762,38,2,single,1,2,0,0,1,rechten,1,1165,1
3762,39,2,single,1,1,1,0,1,linken,1,639.0000000001164,1
3762,40,2,single,1,2,1,0,0,linken,1,1050,1
3762,41,1,single,2,1,0,0,0,linken,1,756,1
3762,42,2,single,2,2,0,1,1,rechten,1,719,1
3762,43,1,single,2,1,1,1,1,rechten,1,494,1
3762,44,2,single,2,1,1,0,1,rechten,1,624,1
3762,45,2,single,1,2,1,0,0,linken,1,718,1
3762,46,1,single,2,1,0,1,0,rechten,1,640,1
3762,47,1,single,1,1,0,1,0,rechten,1,756,1
3762,48,1,single,1,2,0,1,1,linken,1,604,1
3762,49,2,single,2,2,1,0,0,linken,1,944,1
3762,50,1,single,2,1,0,1,0,linken,1,756,1
3762,51,2,single,2,1,0,1,0,rechten,1,1662,1
3762,52,2,single,1,2,0,1,1,linken,1,646,1
3762,53,2,single,1,1,1,1,1,linken,1,631.0000000001164,1
3762,54,2,single,1,1,1,1,1,linken,1,562,1
3762,55,2,single,1,2,1,0,0,linken,1,676,1
3762,56,2,single,1,2,0,1,1,rechten,1,584,1
3762,57,1,single,2,1,1,0,1,rechten,1,640,1
3762,58,2,single,2,2,1,1,0,rechten,1,769,1
3762,59,1,single,2,2,0,1,1,rechten,1,643,1
3762,60,1,single,1,1,1,0,1,linken,0,568.0000000001164,1
3762,61,2,single,2,1,1,0,1,linken,1,807,1
3762,62,1,single,2,2,1,1,0,rechten,1,670,1
3762,63,1,single,1,2,0,1,1,linken,1,660.0000000001164,1
3762,64,1,single,1,2,1,1,0,linken,1,673,1
3762,65,1,single,1,1,0,1,0,rechten,1,655,1
3762,66,2,single,2,1,0,1,0,rechten,1,1113,1
3762,67,1,single,2,1,0,1,0,linken,1,642,1
3762,68,2,single,2,1,0,1,0,rechten,1,757,1
3762,69,1,single,2,2,0,1,1,linken,1,664.0000000001164,1
3762,70,2,single,2,2,1,0,0,rechten,1,783,1
3762,71,2,single,1,2,0,0,1,rechten,1,1126,1
3762,72,2,single,1,2,1,0,0,rechten,1,696,1
3762,73,2,single,1,2,0,0,1,linken,1,590,1
3762,74,1,single,2,2,1,0,0,linken,1,1066,1
3762,75,2,single,2,2,0,1,1,linken,1,748,1
3762,76,1,single,2,1,1,1,1,rechten,1,656,1
3762,77,1,single,1,2,1,1,0,linken,1,836,1
3762,78,1,single,1,2,0,1,1,rechten,1,697,1
3762,79,1,single,1,2,1,0,0,linken,1,888,1
3762,80,2,single,2,2,0,1,1,linken,1,837.0000000001164,1
3762,81,2,single,1,2,1,1,0,linken,1,778,1
3762,82,1,single,2,2,0,1,1,rechten,1,763,1
3762,83,2,single,2,1,1,0,1,linken,1,752,1
3762,84,2,single,1,2,1,1,0,linken,1,690,1
3762,85,1,single,2,2,0,0,1,rechten,1,648,1
3762,86,1,single,1,1,1,1,1,linken,1,664,1
3762,87,2,single,2,2,1,0,0,linken,1,783,1
3762,88,2,single,1,2,0,1,1,rechten,1,1337,1
3762,89,1,single,2,2,1,0,0,rechten,1,598,1
3762,90,2,single,2,1,0,0,0,linken,1,662,1
3762,91,2,single,1,1,0,1,0,linken,1,638,1
3762,92,1,single,2,1,0,0,0,rechten,1,704,1
3762,93,2,single,2,2,0,0,1,linken,1,640,1
3762,94,1,single,2,2,1,1,0,linken,1,757,1
3762,95,2,single,2,2,0,0,1,linken,1,794,1
3762,96,2,single,1,1,1,1,1,linken,1,706.0000000001164,1
3762,97,2,single,1,2,1,0,0,rechten,1,624,1
3762,98,1,single,2,1,0,0,0,linken,1,684,1
3762,99,2,single,2,2,0,0,1,rechten,1,892,1
3762,100,2,single,1,1,1,1,1,linken,1,593,1
3762,101,2,single,1,1,1,1,1,rechten,1,651.0000000001164,1
3762,102,2,single,1,1,1,0,1,rechten,1,701,1
3762,103,2,single,1,2,1,1,0,linken,1,599.0000000001164,1
3762,104,2,single,1,1,0,0,0,linken,1,1039.0000000001164,1
3762,105,1,single,2,2,0,1,1,linken,1,706,1
3762,106,2,single,2,2,1,1,0,rechten,1,624,1
3762,107,2,single,1,2,0,0,1,rechten,1,1062,1
3762,108,2,single,1,2,1,0,0,rechten,1,649,1
3762,109,1,single,2,2,0,1,1,linken,1,565.9999999998836,1
3762,110,1,single,1,2,1,1,0,linken,1,925,1
3762,111,2,single,2,1,0,0,0,rechten,1,980.0000000001164,1
3762,112,1,single,2,2,0,1,1,rechten,1,881,1
3762,113,1,single,1,1,1,1,1,linken,1,745,1
3762,114,1,single,1,1,1,0,1,linken,1,704,1
3762,115,1,single,1,2,1,0,0,rechten,1,584,1
3762,116,1,single,1,2,0,1,1,linken,1,714,1
3762,117,2,single,2,1,1,1,1,rechten,1,675,1
3762,118,1,single,2,2,1,0,0,linken,1,600,1
3762,119,2,single,2,2,0,0,1,linken,1,851,1
3762,120,1,single,2,2,1,0,0,rechten,1,626,1
3762,121,2,single,2,2,0,1,1,rechten,1,607,1
3762,122,1,single,2,2,1,1,0,linken,1,593,1
3762,123,1,single,1,1,0,0,0,linken,1,874,1
3762,124,1,single,1,1,0,1,0,rechten,1,595,1
3762,125,2,single,2,2,0,1,1,linken,1,708,1
3762,126,2,single,1,2,1,0,0,rechten,0,814,1
3762,127,1,single,2,2,0,1,1,rechten,1,698,1
3762,128,2,single,2,2,1,1,0,linken,1,701,1
3762,1,1,single,0,0,0,1,0,linken,1,702,1
3762,2,1,single,1,2,0,1,1,linken,1,595,1
3762,3,2,single,2,1,1,0,1,rechten,1,630,1
3762,4,2,single,1,1,1,0,1,linken,1,687,1
3762,5,1,single,2,1,1,0,1,rechten,1,729,1
3762,6,1,single,1,2,1,1,0,rechten,1,575,1
3762,7,2,single,2,2,0,0,1,rechten,0,1077,1
3762,8,1,single,2,2,1,0,0,linken,1,618.0000000002328,1
3762,9,2,single,2,1,0,0,0,rechten,1,592,1
3762,10,2,single,1,2,0,0,1,rechten,1,916,1
3762,11,1,single,2,2,1,1,0,linken,1,641,1
3762,12,2,single,2,2,0,0,1,linken,1,605,1
3762,13,2,single,1,2,1,1,0,linken,1,621,1
3762,14,1,single,2,1,0,0,0,linken,1,925.0000000002328,1
3762,15,2,single,2,1,0,0,0,rechten,0,831,1
3762,16,1,single,2,2,0,1,1,linken,1,670,1
3762,17,1,single,1,2,1,0,0,rechten,1,664,1
3762,18,1,single,1,1,0,1,0,linken,1,727,1
3762,19,2,single,2,2,0,0,1,linken,1,1636,1
3762,20,2,single,1,2,1,0,0,linken,1,846,1
3762,21,1,single,2,1,0,0,0,rechten,1,585,1
3762,22,1,single,1,1,0,0,0,linken,1,751,1
3762,23,2,single,2,2,0,1,1,linken,1,1214,1
3762,24,1,single,2,2,1,0,0,linken,1,786.0000000002328,1
3762,25,2,single,2,2,0,1,1,linken,1,654,1
3762,26,1,single,2,2,1,1,0,linken,1,547,1
3762,27,2,single,2,1,0,0,0,rechten,1,657,1
3762,28,2,single,1,2,0,1,1,rechten,1,600,1
3762,29,1,single,2,2,1,1,0,rechten,1,589,1
3762,30,2,single,2,1,0,1,0,linken,1,668,1
3762,31,2,single,1,2,0,1,1,linken,1,599,1
3762,32,1,single,2,1,1,0,1,rechten,1,648.0000000002328,1
3762,33,1,single,1,1,1,0,1,rechten,1,712,1
3762,34,2,single,2,1,1,1,1,rechten,1,1206,1
3762,35,1,single,2,2,1,0,0,linken,1,816,1
3762,36,1,single,1,2,0,1,1,rechten,1,995,1
3762,37,1,single,1,1,1,0,1,linken,1,889,1
3762,38,1,single,1,1,1,1,1,linken,1,582,1
3762,39,2,single,2,2,1,0,0,rechten,1,762,1
3762,40,1,single,2,2,0,0,1,linken,0,673,1
3762,41,1,single,1,1,1,1,1,rechten,1,587,1
3762,42,1,single,1,1,1,1,1,linken,1,586,1
3762,43,1,single,1,1,1,1,1,rechten,1,622,1
3762,44,1,single,1,2,1,1,0,linken,1,694,1
3762,45,2,single,2,1,0,0,0,linken,1,858,1
3762,46,1,single,2,1,0,0,0,linken,1,1201,1
3762,47,1,single,1,2,0,0,1,linken,1,649,1
3762,48,2,single,2,2,1,0,0,linken,1,1135,1
3762,49,2,single,1,2,0,0,1,rechten,1,1203,1
3762,50,1,single,2,1,1,0,1,linken,1,794,1
3762,51,1,single,1,2,1,1,0,rechten,1,869,1
3762,52,2,single,2,2,0,0,1,linken,1,602,1
3762,53,2,single,1,2,1,1,0,linken,1,914.0000000002328,1
3762,54,1,single,2,2,0,0,1,rechten,1,691.0000000002328,1
3762,55,2,single,2,2,1,0,0,linken,1,861,1
3762,56,1,single,2,1,0,0,0,rechten,1,720,1
3762,57,1,single,1,1,0,0,0,rechten,1,1135,1
3762,58,2,single,2,1,0,1,0,rechten,1,623,1
3762,59,2,single,1,2,0,0,1,rechten,1,616,1
3762,60,1,single,2,2,1,1,0,rechten,1,573,1
3762,61,1,single,1,1,0,0,0,rechten,1,963.0000000002328,1
3762,62,2,single,2,2,0,1,1,rechten,1,635,1
3762,63,1,single,2,1,1,0,1,linken,1,890,1
3762,64,1,single,1,1,1,0,1,rechten,1,643,1
3762,65,1,single,1,1,1,0,1,linken,1,660,1
3762,66,1,single,1,2,1,1,0,rechten,1,626,1
3762,67,1,single,1,1,0,1,0,linken,1,602,1
3762,68,1,single,1,2,0,0,1,linken,0,785,1
3762,69,2,single,2,1,1,1,1,rechten,0,765,1
3762,70,2,single,1,2,1,1,0,rechten,1,785,1
3762,71,2,single,1,2,0,0,1,linken,1,611,1
3762,72,2,single,1,1,1,0,1,linken,1,761.0000000002328,1
3762,73,2,single,1,2,1,1,0,linken,1,670,1
3762,74,1,single,2,2,0,1,1,rechten,1,798,1
3762,75,2,single,2,1,1,1,1,linken,1,628,1
3762,76,1,single,2,1,1,1,1,linken,1,913,1
3762,77,2,single,2,1,1,1,1,linken,1,662,1
3762,78,1,single,2,2,1,0,0,rechten,1,746,1
3762,79,1,single,1,1,0,0,0,rechten,0,722,1
3762,80,1,single,1,1,0,1,0,rechten,1,633,1
3762,81,1,single,1,1,0,0,0,rechten,1,710,1
3762,82,1,single,1,2,0,0,1,rechten,0,627,1
3762,83,2,single,2,1,1,0,1,rechten,1,897,1
3762,84,2,single,1,2,1,0,0,rechten,1,671,1
3762,85,2,single,1,2,0,1,1,rechten,1,615,1
3762,86,2,single,1,2,1,1,0,rechten,1,656,1
3762,87,2,single,1,2,0,0,1,linken,1,725,1
3762,88,2,single,1,2,1,1,0,rechten,1,665,1
3762,89,1,single,2,1,0,1,0,rechten,1,618,1
3762,90,1,single,1,1,0,1,0,linken,1,874,1
3762,91,2,single,2,2,0,1,1,linken,1,631,1
3762,92,1,single,2,2,1,0,0,linken,1,710,1
3762,93,2,single,2,1,0,0,0,linken,1,560,1
3762,94,1,single,2,2,0,0,1,rechten,1,578,1
3762,95,2,single,2,2,1,1,0,rechten,1,712,1
3762,96,2,single,1,2,0,1,1,linken,1,550,1
3762,97,2,single,1,2,1,0,0,rechten,1,661,1
3762,98,1,single,2,2,0,1,1,rechten,1,572,1
3762,99,2,single,2,2,1,0,0,rechten,1,769,1
3762,100,2,single,1,2,0,1,1,rechten,1,674,1
3762,101,2,single,1,2,1,1,0,rechten,1,584,1
3762,102,2,single,1,1,0,1,0,linken,1,647,1
3762,103,1,single,2,2,0,0,1,rechten,1,647,1
3762,104,1,single,1,1,1,1,1,linken,1,635,1
3762,105,2,single,2,2,1,0,0,rechten,1,613,1
3762,106,1,single,2,1,0,0,0,linken,1,937,1
3762,107,1,single,1,2,0,1,1,linken,1,902.0000000002328,1
3762,108,1,single,1,2,1,1,0,rechten,1,687.0000000002328,1
3762,109,2,single,2,2,0,0,1,rechten,0,839,1
3762,110,2,single,1,2,1,1,0,rechten,1,753,1
3762,111,1,single,2,1,0,1,0,linken,1,734.0000000002328,1
3762,112,2,single,2,1,0,0,0,linken,1,1437,1
3762,113,1,single,2,2,0,1,1,rechten,1,741,1
3762,114,2,single,2,2,1,0,0,linken,1,689,1
3762,115,2,single,1,2,0,1,1,rechten,1,1098,1
3762,116,1,single,2,1,1,1,1,rechten,1,679,1
3762,117,1,single,1,1,1,0,1,linken,1,775,1
3762,118,2,single,2,1,1,1,1,linken,1,696,1
3762,119,2,single,1,1,1,0,1,rechten,1,888,1
3762,120,2,single,1,2,1,1,0,linken,1,1224,1
3762,121,2,single,1,2,0,1,1,rechten,1,1236,1
3762,122,2,single,1,2,1,1,0,linken,1,667,1
3762,123,2,single,1,1,0,0,0,linken,1,567,1
3762,124,1,single,2,2,0,1,1,linken,1,617,1
3762,125,1,single,1,1,1,1,1,rechten,1,697,1
3762,126,2,single,2,1,1,0,1,linken,1,646,1
3762,127,2,single,1,2,1,1,0,rechten,1,776,1
3762,128,2,single,1,1,0,1,0,linken,1,669,1
3762,1,1,single,0,0,0,0,1,rechten,1,712.0000000002328,1
3762,2,1,single,1,2,1,0,0,rechten,1,739,1
3762,3,1,single,1,2,0,1,1,linken,1,907,1
3762,4,2,single,2,1,1,0,1,linken,1,645.0000000002328,1
3762,5,1,single,2,2,1,0,0,rechten,1,736,1
3762,6,1,single,1,1,0,1,0,rechten,1,650.0000000002328,1
3762,7,1,single,1,1,0,1,0,rechten,1,614,1
3762,8,2,single,2,2,0,0,1,rechten,1,644.0000000002328,1
3762,9,1,single,2,2,1,0,0,linken,1,648,1
3762,10,2,single,2,2,0,0,1,rechten,1,914,1
3762,11,2,single,1,1,1,0,1,rechten,1,654,1
3762,12,1,single,2,1,1,0,1,rechten,1,737,1
3762,13,1,single,1,1,1,1,1,rechten,1,624,1
3762,14,1,single,1,2,1,0,0,rechten,1,655.0000000002328,1
3762,15,1,single,1,2,0,1,1,linken,1,625,1
3762,16,1,single,1,1,1,0,1,rechten,1,673,1
3762,17,2,single,2,1,1,0,1,linken,1,669.0000000002328,1
3762,18,1,single,2,2,1,0,0,linken,1,777,1
3762,19,1,single,1,1,0,1,0,rechten,1,857,1
3762,20,2,single,2,1,0,0,0,rechten,0,694,1
3762,21,1,single,2,1,0,1,0,linken,1,732,1
3762,22,1,single,1,2,0,0,1,linken,1,649,1
3762,23,1,single,1,2,1,0,0,rechten,1,613,1
3762,24,1,single,1,1,0,0,0,rechten,1,1865,1
3762,25,1,single,1,1,0,1,0,linken,1,578,1
3762,26,2,single,2,2,0,0,1,linken,1,672,1
3762,27,2,single,1,2,1,0,0,linken,1,796.0000000002328,1
3762,28,2,single,1,2,0,1,1,rechten,1,623,1
3762,29,2,single,1,1,1,0,1,linken,1,654,1
3762,30,2,single,1,2,1,0,0,rechten,1,874,1
3762,31,1,single,2,2,0,0,1,rechten,1,808,1
3762,32,2,single,2,2,1,0,0,linken,1,686.0000000002328,1
3762,33,1,single,2,2,0,0,1,rechten,1,633,1
3762,34,2,single,2,1,1,1,1,linken,1,615,1
3762,35,2,single,1,2,1,0,0,linken,1,634,1
3762,36,1,single,2,1,0,1,0,linken,1,600,1
3762,37,1,single,1,2,0,0,1,linken,1,665,1
3762,38,2,single,2,2,1,1,0,linken,1,564,1
3762,39,2,single,1,1,0,1,0,linken,1,678,1
3762,40,1,single,2,1,0,1,0,linken,1,614.0000000002328,1
3762,41,2,single,2,1,0,1,0,rechten,0,790,1
3762,42,2,single,1,1,0,1,0,linken,1,683,1
3762,43,2,single,1,2,0,1,1,rechten,1,893,1
3762,44,1,single,2,1,1,1,1,linken,1,642.0000000002328,1
3762,45,2,single,2,2,1,0,0,rechten,1,561,1
3762,46,2,single,1,2,0,0,1,rechten,1,1092,1
3762,47,2,single,1,1,1,0,1,linken,0,1034,1
3762,48,2,single,1,1,1,1,1,linken,1,1158.0000000002328,1
3762,49,1,single,2,2,1,1,0,linken,1,1012,1
3762,50,2,single,2,2,0,1,1,rechten,1,782,1
3762,51,2,single,1,1,1,1,1,linken,1,698,1
3762,52,2,single,1,1,1,1,1,linken,1,606,1
3762,53,1,single,2,1,1,1,1,rechten,1,523.0000000002328,1
3762,54,2,single,2,2,1,0,0,linken,1,630,1
3762,55,2,single,1,1,0,1,0,rechten,1,840,1
3762,56,2,single,1,2,0,1,1,linken,1,657,1
3762,57,2,single,1,1,1,1,1,linken,1,713,1
3762,58,1,single,2,2,1,1,0,rechten,1,674,1
3762,59,1,single,1,1,0,1,0,linken,1,866,1
3762,60,1,single,1,2,0,1,1,rechten,1,671,1
3762,61,1,single,1,1,1,1,1,rechten,1,1229,1
3762,62,1,single,1,1,1,0,1,linken,1,1064,1
3762,63,1,single,1,2,1,0,0,rechten,1,600,1
3762,64,2,single,2,1,0,1,0,linken,1,642.0000000002328,1
3762,65,1,single,2,2,0,1,1,rechten,1,629,1
3762,66,2,single,2,1,1,0,1,linken,1,701,1
3762,67,2,single,1,1,1,1,1,rechten,1,1036,1
3762,68,1,single,2,2,1,0,0,linken,1,674,1
3762,69,1,single,1,1,0,0,0,linken,1,888,1
3762,70,1,single,1,2,0,0,1,linken,0,739,1
3762,71,2,single,2,1,1,1,1,rechten,1,717,1
3762,72,2,single,1,2,1,1,0,linken,1,674,1
3762,73,2,single,1,1,0,1,0,rechten,1,1481,1
3762,74,2,single,1,1,0,0,0,linken,1,854,1
3762,75,1,single,2,1,0,1,0,rechten,1,933,1
3762,76,1,single,1,2,0,1,1,linken,1,627,1
3762,77,2,single,2,1,1,0,1,rechten,1,609,1
3762,78,1,single,2,1,1,0,1,rechten,1,644,1
3762,79,1,single,1,1,1,1,1,linken,1,589,1
3762,80,2,single,2,1,1,0,1,rechten,1,671,1
3762,81,1,single,2,2,1,1,0,rechten,1,626.0000000002328,1
3762,82,1,single,1,2,0,0,1,rechten,1,760,1
3762,83,1,single,1,2,1,0,0,linken,1,775,1
3762,84,2,single,2,1,0,0,0,linken,1,821,1
3762,85,1,single,2,1,0,1,0,rechten,1,1285,1
3762,86,1,single,1,1,0,0,0,rechten,1,644.0000000002328,1
3762,87,2,single,2,1,0,0,0,rechten,1,777,1
3762,88,1,single,2,2,0,1,1,rechten,1,703,1
3762,89,2,single,2,2,1,0,0,linken,1,845,1
3762,90,1,single,2,2,0,1,1,linken,1,807,1
3762,91,2,single,2,2,1,0,0,rechten,1,911,1
3762,92,1,single,2,1,0,1,0,linken,1,649,1
3762,93,1,single,1,2,0,0,1,linken,1,822.0000000002328,1
3762,94,2,single,2,1,1,0,1,rechten,0,849,1
3762,95,2,single,1,1,1,1,1,rechten,1,614.0000000002328,1
3762,96,1,single,2,1,1,0,1,linken,1,538,1
3762,97,2,single,2,1,1,0,1,rechten,0,558,1
3762,98,2,single,1,2,1,1,0,rechten,1,556,1
3762,99,2,single,1,1,0,1,0,rechten,1,587,1
3762,100,1,single,2,1,0,1,0,linken,1,745,1
3762,101,2,single,2,2,0,1,1,linken,1,642,1
3762,102,2,single,1,1,1,1,1,rechten,1,650,1
3762,103,2,single,1,2,1,1,0,linken,1,718,1
3762,104,2,single,1,1,0,0,0,rechten,1,678,1
3762,105,1,single,2,2,0,1,1,rechten,1,653,1
3762,106,2,single,2,2,1,1,0,linken,1,685,1
3762,107,2,single,1,1,0,1,0,rechten,0,807,1
3762,108,1,single,2,2,0,1,1,linken,1,697,1
3762,109,2,single,2,2,1,1,0,rechten,1,719,1
3762,110,1,single,2,1,0,0,0,linken,1,608,1
3762,111,2,single,2,1,0,0,0,linken,1,664,1
3762,112,1,single,2,1,0,0,0,linken,1,712.0000000002328,1
3762,113,1,single,1,2,0,0,1,linken,1,917.0000000002328,1
3762,114,2,single,2,2,1,1,0,rechten,1,720,1
3762,115,2,single,1,1,0,1,0,linken,1,694,1
3762,116,1,single,2,2,0,0,1,linken,1,1113,1
3762,117,2,single,2,1,1,0,1,linken,0,535,1
3762,118,1,single,2,1,1,0,1,rechten,0,580,1
3762,119,2,single,2,2,1,0,0,rechten,1,950,1
3762,120,1,single,2,2,0,1,1,rechten,1,680,1
3762,121,1,single,1,1,1,1,1,linken,1,718,1
3762,122,1,single,1,2,1,1,0,rechten,1,578,1
3762,123,1,single,1,1,0,0,0,linken,1,587.0000000002328,1
3762,124,2,single,2,2,0,1,1,linken,1,640.0000000002328,1
3762,125,2,single,1,1,1,1,1,rechten,1,572,1
3762,126,2,single,1,1,1,0,1,linken,1,645,1
3762,127,2,single,1,2,1,0,0,rechten,1,593,1
3762,128,1,single,2,1,0,0,0,rechten,1,987,1
3726,1,1,single,0,0,0,1,0,rechten,1,1025.800000000163,1
3726,2,2,single,2,2,0,0,1,rechten,1,960.9000000002561,1
3726,3,1,single,2,2,1,1,0,rechten,1,1012.8000000002794,1
3726,4,2,single,2,2,0,0,1,rechten,1,867.8999999999069,1
3726,5,1,single,2,2,1,1,0,linken,1,903.5000000001164,1
3726,6,2,single,2,1,0,1,0,rechten,1,1214.7999999999884,1
3726,7,2,single,1,2,0,0,1,linken,1,746.3000000001048,1
3726,8,1,single,2,1,1,1,1,rechten,1,889.5999999999767,1
3726,9,1,single,1,2,1,1,0,linken,1,904.8,1
3726,10,1,single,1,2,0,0,1,rechten,0,976.5000000001164,1
3726,11,1,single,1,2,1,0,0,linken,1,895.0000000001746,1
3726,12,1,single,1,2,0,1,1,linken,1,730.5000000001746,1
3726,13,1,single,1,2,1,1,0,rechten,1,1082.1999999998952,1
3726,14,1,single,1,1,0,0,0,linken,1,801.5999999999185,1
3726,15,1,single,1,1,0,0,0,linken,1,781.0999999999767,1
3726,16,2,single,2,1,0,1,0,linken,1,716.3999999999069,1
3726,17,2,single,1,1,0,0,0,rechten,1,936.0999999999767,1
3726,18,2,single,1,2,0,1,1,rechten,1,819.2000000001863,1
3726,19,2,single,1,2,1,0,0,rechten,1,835.0000000001164,1
3726,20,1,single,2,2,0,1,1,rechten,1,778.2999999999302,1
3726,21,2,single,2,1,1,1,1,linken,1,601.7999999999302,1
3726,22,2,single,1,2,1,0,0,rechten,1,853.1999999998952,1
3726,23,2,single,1,1,0,0,0,linken,1,804.5000000001746,1
3726,24,2,single,1,1,0,0,0,rechten,1,832.3000000001048,1
3726,25,2,single,1,2,0,0,1,linken,1,671.6999999998952,1
3726,26,1,single,2,2,1,1,0,linken,1,887.1000000002678,1
3726,27,2,single,2,2,0,1,1,linken,1,642.5999999999185,1
3726,28,1,single,2,1,1,0,1,linken,1,805.9000000001397,1
3726,29,1,single,1,2,1,1,0,linken,1,669.5999999999767,1
3726,30,1,single,1,1,0,0,0,linken,1,681.1999999999534,1
3726,31,1,single,1,2,0,0,1,rechten,1,684.4000000002561,1
3726,32,1,single,1,1,1,1,1,linken,1,683.8,1
3726,33,1,single,1,1,1,1,1,rechten,1,695.4000000002561,1
3726,34,1,single,1,1,1,1,1,linken,1,906.9999999998836,1
3726,35,2,single,2,2,1,1,0,rechten,1,762.4999999998836,1
3726,36,1,single,2,2,0,1,1,linken,1,797.8000000002794,1
3726,37,2,single,2,2,1,1,0,rechten,1,805.3999999999069,1
3726,38,2,single,1,1,0,0,0,rechten,1,772.7000000003027,1
3726,39,2,single,1,1,0,0,0,linken,1,656.2000000003027,1
3726,40,1,single,2,2,0,0,1,rechten,1,651.7000000003027,1
3726,41,2,single,2,1,1,0,1,rechten,1,735.2999999999302,1
3726,42,2,single,1,2,1,1,0,rechten,1,862.5000000001164,1
3726,43,1,single,2,2,0,0,1,rechten,1,973.9000000000233,1
3726,44,1,single,1,1,1,1,1,rechten,1,713.4000000001397,1
3726,45,1,single,1,2,1,1,0,rechten,1,1000.8000000000466,1
3726,46,1,single,1,1,0,0,0,rechten,1,824.6999999999534,1
3726,47,1,single,1,2,0,1,1,linken,1,624.0000000002328,1
3726,48,1,single,1,1,1,0,1,rechten,1,647.4999999998836,1
3726,49,1,single,1,2,1,1,0,rechten,1,755.0000000002328,1
3726,50,2,single,2,2,0,0,1,linken,1,578.3,1
3726,51,1,single,2,1,1,0,1,rechten,1,797.8,1
3726,52,2,single,2,1,1,1,1,rechten,1,845.3,1
3726,53,2,single,1,1,1,1,1,linken,1,544.3999999999069,1
3726,54,2,single,1,1,1,1,1,rechten,1,1032.2000000001863,1
3726,55,2,single,1,2,1,1,0,linken,1,703.5,1
3726,56,2,single,1,2,0,0,1,linken,1,759.3000000002794,1
3726,57,1,single,2,2,1,0,0,linken,0,626.8000000002794,1
3726,58,2,single,2,1,0,0,0,linken,1,621.4000000001397,1
3726,59,2,single,1,1,0,0,0,linken,1,697.1999999999534,1
3726,60,1,single,2,2,0,1,1,rechten,1,604.4000000000233,1
3726,61,2,single,2,1,1,1,1,linken,1,584.2000000003027,1
3726,62,1,single,2,2,1,1,0,rechten,1,783.2999999999302,1
3726,63,1,single,1,2,0,1,1,linken,1,622.6999999999534,1
3726,64,2,single,2,2,1,1,0,linken,1,742.6999999999534,1
3726,65,1,single,2,1,0,0,0,linken,1,718.0000000002328,1
3726,66,2,single,2,1,0,1,0,linken,1,1005.5000000002328,1
3726,67,1,single,2,1,0,1,0,linken,1,1201.100000000326,1
3726,68,1,single,1,2,0,0,1,linken,1,664.0999999999767,1
3726,69,1,single,1,2,1,0,0,rechten,1,676.0999999999767,1
3726,70,1,single,1,2,0,0,1,rechten,1,746.9999999998836,1
3726,71,2,single,2,2,1,0,0,rechten,1,726.6000000000931,1
3726,72,2,single,1,2,0,1,1,linken,1,665.9999999998836,1
3726,73,1,single,2,1,1,0,1,rechten,1,673.7000000001863,1
3726,74,1,single,1,1,1,0,1,linken,1,632.8999999999069,1
3726,75,2,single,2,2,1,1,0,linken,1,600.8000000002794,1
3726,76,2,single,1,2,0,0,1,linken,1,611.8999999999069,1
3726,77,1,single,2,2,1,0,0,rechten,1,959.7000000000698,1
3726,78,2,single,2,2,0,0,1,rechten,1,835.1000000000931,1
3726,79,2,single,1,2,1,0,0,rechten,1,707,1
3726,80,2,single,1,2,0,0,1,rechten,1,578.0000000001164,1
3726,81,1,single,2,2,1,0,0,linken,1,585.9000000000233,1
3726,82,2,single,2,2,0,1,1,rechten,1,681.2999999999302,1
3726,83,1,single,2,2,1,1,0,linken,1,684.7999999999302,1
3726,84,1,single,1,2,0,0,1,linken,1,616.1000000002095,1
3726,85,2,single,2,2,1,1,0,linken,0,747.5000000001164,1
3726,86,1,single,2,1,0,0,0,rechten,1,1158.5000000002328,1
3726,87,2,single,2,1,0,0,0,linken,1,597.5999999998603,1
3726,88,1,single,2,2,0,1,1,linken,1,925.1999999999534,1
3726,89,2,single,2,1,1,0,1,rechten,1,720.9999999998836,1
3726,90,1,single,2,2,1,0,0,rechten,1,883.9000000002561,1
3726,91,2,single,2,1,0,0,0,rechten,1,775.6000000000931,1
3726,92,2,single,1,2,0,0,1,rechten,1,670.9999999998836,1
3726,93,2,single,1,2,1,1,0,linken,1,642.5999999999767,1
3726,94,1,single,2,1,0,1,0,rechten,1,685.8999999999069,1
3726,95,2,single,2,2,0,0,1,linken,1,817.5,1
3726,96,2,single,1,2,1,1,0,rechten,1,1373.3000000002794,1
3726,97,2,single,1,1,0,1,0,rechten,1,792.0000000002328,1
3726,98,2,single,1,1,0,0,0,linken,1,727.6,1
3726,99,2,single,1,2,0,1,1,rechten,1,755.2000000003027,1
3726,100,2,single,1,1,1,1,1,linken,1,694.8000000000466,1
3726,101,1,single,2,1,1,1,1,rechten,1,766.1999999999534,1
3726,102,1,single,1,2,1,0,0,linken,1,677.4999999998836,1
3726,103,1,single,1,2,0,0,1,linken,1,705.2000000000698,1
3726,104,2,single,2,2,1,0,0,linken,1,876.5000000002328,1
3726,105,2,single,1,1,0,1,0,rechten,1,816.0999999999767,1
3726,106,1,single,2,1,0,0,0,rechten,1,899.8000000000466,1
3726,107,2,single,2,2,0,0,1,linken,1,658.8999999999069,1
3726,108,1,single,2,2,1,1,0,rechten,1,682.3000000002794,1
3726,109,1,single,1,1,0,1,0,linken,1,669.9000000002561,1
3726,110,2,single,2,2,0,0,1,rechten,1,737.3999999999069,1
3726,111,1,single,2,1,1,1,1,linken,1,852.8000000002794,1
3726,112,2,single,2,1,1,0,1,linken,1,824.2999999999302,1
3726,113,1,single,2,2,1,0,0,rechten,1,835.5000000001164,1
3726,114,2,single,2,2,0,1,1,rechten,0,699.1000000002095,1
3726,115,1,single,2,1,1,0,1,linken,1,698.0999999998603,1
3726,116,2,single,2,1,1,1,1,rechten,1,685.5000000002328,1
3726,117,2,single,1,2,1,1,0,linken,1,657.0000000002328,1
3726,118,2,single,1,1,0,1,0,rechten,1,1012.5999999998603,1
3726,119,2,single,1,2,0,1,1,rechten,1,856.0999999999767,1
3726,120,1,single,2,1,1,0,1,linken,1,595.5,1
3726,121,1,single,1,1,1,1,1,rechten,1,659,1
3726,122,1,single,1,1,1,0,1,linken,1,578.3000000002794,1
3726,123,1,single,1,2,1,0,0,rechten,1,926.4999999998836,1
3726,124,2,single,2,1,0,0,0,linken,1,633.3000000002794,1
3726,125,1,single,2,2,0,1,1,rechten,1,609,1
3726,126,2,single,2,1,1,1,1,linken,1,592.1000000000931,1
3726,127,2,single,1,1,1,1,1,linken,1,660.9000000002561,1
3726,128,1,single,2,2,1,1,0,linken,1,879.1000000000931,1
3726,1,2,single,0,0,0,0,1,linken,1,667.7000000001863,1
3726,2,1,single,2,2,1,0,0,rechten,1,643.4000000002561,1
3726,3,2,single,2,1,0,1,0,rechten,1,806.7000000000698,1
3726,4,1,single,2,1,0,0,0,rechten,1,698.4000000002561,1
3726,5,1,single,1,2,0,0,1,linken,1,673.8000000002794,1
3726,6,1,single,1,1,1,1,1,linken,1,865.2000000001863,1
3726,7,1,single,1,2,1,0,0,linken,1,984.7000000001863,1
3726,8,2,single,2,1,0,1,0,linken,1,799.9000000001397,1
3726,9,2,single,1,1,0,0,0,linken,1,671.6,1
3726,10,2,single,1,2,0,1,1,linken,1,638.9000000000233,1
3726,11,2,single,1,2,1,1,0,rechten,1,778.6999999999534,1
3726,12,1,single,2,1,0,0,0,rechten,1,826.0000000002328,1
3726,13,2,single,2,2,0,0,1,linken,1,609.6999999999534,1
3726,14,1,single,2,2,1,0,0,rechten,1,689.0999999998603,1
3726,15,2,single,2,2,0,1,1,rechten,1,852.5000000002328,1
3726,16,2,single,1,1,1,1,1,linken,1,703.6999999999534,1
3726,17,2,single,1,1,1,1,1,rechten,1,807.5999999999767,1
3726,18,1,single,2,2,1,0,0,rechten,1,898.9000000001397,1
3726,19,1,single,1,1,0,1,0,rechten,1,1453.9999999998836,1
3726,20,1,single,1,2,0,0,1,linken,1,693.4000000000233,1
3726,21,2,single,2,1,1,0,1,linken,1,665.1000000002095,1
3726,22,2,single,1,1,1,0,1,rechten,1,785.1000000002095,1
3726,23,1,single,2,2,1,0,0,linken,1,776.4000000000233,1
3726,24,1,single,1,1,0,1,0,linken,1,628.1000000002095,1
3726,25,1,single,1,1,0,1,0,rechten,0,1118.8000000000466,1
3726,26,1,single,1,2,0,0,1,rechten,1,957.9999999998836,1
3726,27,2,single,2,2,1,0,0,linken,1,581.3,1
3726,28,1,single,2,1,0,0,0,rechten,1,1344.7000000001863,1
3726,29,1,single,1,2,0,0,1,rechten,1,752.4000000000233,1
3726,30,1,single,1,1,1,1,1,linken,1,767.5000000002328,1
3726,31,1,single,1,1,1,1,1,linken,1,586.8000000000466,1
3726,32,1,single,1,1,1,1,1,linken,1,742.5000000002328,1
3726,33,1,single,1,1,1,1,1,rechten,1,717.6999999999534,1
3726,34,2,single,2,2,1,1,0,rechten,0,605.4000000001397,1
3726,35,1,single,2,2,0,1,1,rechten,1,676.7000000000698,1
3726,36,1,single,1,1,1,1,1,rechten,1,723.5999999998603,1
3726,37,1,single,1,2,1,0,0,rechten,1,867.4000000001397,1
3726,38,2,single,2,1,0,1,0,rechten,1,698.8,1
3726,39,1,single,2,1,0,1,0,linken,1,771.0999999999767,1
3726,40,1,single,1,2,0,1,1,linken,1,597.5999999999767,1
3726,41,1,single,1,1,1,0,1,linken,1,693.4999999998836,1
3726,42,2,single,2,1,1,0,1,rechten,1,1016.9000000001397,1
3726,43,2,single,1,2,1,0,0,linken,1,580.1000000000931,1
3726,44,1,single,2,2,0,0,1,rechten,1,655.5000000001164,1
3726,45,2,single,2,1,1,0,1,linken,1,602.8000000002794,1
3726,46,2,single,1,2,1,1,0,linken,1,642.4000000002561,1
3726,47,2,single,1,1,0,0,0,rechten,1,805.9999999998836,1
3726,48,2,single,1,1,0,0,0,linken,1,697.5,1
3726,49,1,single,2,1,0,0,0,linken,1,1036.8000000002794,1
3726,50,1,single,1,2,0,1,1,rechten,1,608.8000000000466,1
3726,51,2,single,2,1,1,0,1,linken,1,571.7999999999302,1
3726,52,1,single,2,2,1,1,0,rechten,1,723.2000000003027,1
3726,53,2,single,2,1,0,0,0,linken,1,831.1,1
3726,54,2,single,1,2,0,1,1,linken,1,574.1000000002095,1
3726,55,1,single,2,1,1,0,1,rechten,1,626.2999999999302,1
3726,56,2,single,2,1,1,1,1,rechten,0,649.4000000000233,1
3726,57,1,single,2,2,1,1,0,linken,1,800.2999999999302,1
3726,58,2,single,2,1,0,1,0,linken,1,675.9000000001397,1
3726,59,1,single,2,2,0,0,1,rechten,1,743.1999999999534,1
3726,60,2,single,2,2,1,1,0,rechten,1,846.5999999998603,1
3726,61,2,single,1,2,0,0,1,linken,1,746.1999999999534,1
3726,62,2,single,1,2,1,1,0,linken,1,657.6,1
3726,63,2,single,1,1,0,0,0,rechten,1,893.4000000001397,1
3726,64,2,single,1,1,0,1,0,rechten,1,936.3,1
3726,65,1,single,2,1,0,1,0,linken,1,707.9999999998836,1
3726,66,2,single,2,2,0,1,1,rechten,1,843.3000000002794,1
3726,67,2,single,1,2,1,0,0,linken,1,699.4000000002561,1
3726,68,2,single,1,2,0,1,1,rechten,1,698.7000000001863,1
3726,69,1,single,2,1,1,1,1,linken,1,645.6000000002095,1
3726,70,2,single,2,1,1,1,1,rechten,1,1081.2999999999302,1
3726,71,2,single,1,2,1,1,0,rechten,1,700.7999999999302,1
3726,72,1,single,2,1,0,0,0,linken,1,744.1999999999534,1
3726,73,2,single,2,1,0,0,0,rechten,1,1175.600000000326,1
3726,74,1,single,2,1,0,1,0,linken,1,754.9000000001397,1
3726,75,1,single,1,1,0,1,0,linken,1,666.5999999998603,1
3726,76,1,single,1,1,0,0,0,linken,1,689.8000000000466,1
3726,77,1,single,1,1,0,0,0,linken,1,653.2000000000698,1
3726,78,2,single,2,2,0,1,1,linken,1,788.9000000001397,1
3726,79,1,single,2,1,1,0,1,linken,1,668.3,1
3726,80,1,single,1,1,1,0,1,rechten,1,715.9999999998836,1
3726,81,2,single,2,1,1,0,1,rechten,1,739.4000000002561,1
3726,82,1,single,2,2,1,1,0,rechten,1,762.9000000002561,1
3726,83,2,single,2,1,0,1,0,rechten,1,670.2000000001863,1
3726,84,1,single,2,1,0,0,0,linken,1,661.7000000000698,1
3726,85,2,single,2,1,0,0,0,linken,1,653.7000000000698,1
3726,86,1,single,2,2,0,1,1,rechten,1,776.8000000002794,1
3726,87,2,single,2,1,1,1,1,linken,1,560.3,1
3726,88,2,single,1,1,1,1,1,linken,1,719.8000000000466,1
3726,89,1,single,2,1,1,1,1,rechten,1,691.2000000000698,1
3726,90,1,single,1,2,1,1,0,rechten,1,710.5999999999767,1
3726,91,1,single,1,2,0,1,1,rechten,1,622.5,1
3726,92,1,single,1,2,1,1,0,rechten,1,733.8000000002794,1
3726,93,1,single,1,2,0,0,1,linken,1,697.3000000002794,1
3726,94,2,single,2,2,1,1,0,linken,1,616.6000000000931,1
3726,95,2,single,1,2,0,0,1,rechten,1,1004.0000000001164,1
3726,96,2,single,1,1,1,0,1,linken,1,631.3000000000466,1
3726,97,2,single,1,1,1,1,1,rechten,1,767.1000000002095,1
3726,98,2,single,1,1,1,1,1,linken,1,626.7999999999302,1
3726,99,1,single,2,2,1,1,0,rechten,1,882.2000000003027,1
3726,100,1,single,1,2,0,0,1,linken,1,641.6000000002095,1
3726,101,2,single,2,1,1,0,1,rechten,1,685.1,1
3726,102,2,single,1,2,1,1,0,linken,1,692.4000000001397,1
3726,103,2,single,1,1,0,0,0,rechten,1,720.0000000002328,1
3726,104,1,single,2,2,0,1,1,linken,1,723.4000000001397,1
3726,105,2,single,2,2,1,0,0,rechten,1,879.1999999999534,1
3726,106,1,single,2,2,0,0,1,linken,1,642.5000000002328,1
3726,107,1,single,1,2,1,1,0,rechten,1,733.6999999999534,1
3726,108,1,single,1,2,0,0,1,linken,1,729.0999999998603,1
3726,109,2,single,2,2,1,0,0,rechten,1,845.0999999998603,1
3726,110,2,single,1,1,0,1,0,linken,1,708.1999999999534,1
3726,111,2,single,1,2,0,0,1,rechten,1,747.8,1
3726,112,2,single,1,1,1,1,1,linken,1,611.3,1
3726,113,2,single,1,2,1,0,0,rechten,1,702.8,1
3726,114,2,single,1,1,0,1,0,linken,1,686.2000000000698,1
3726,115,2,single,1,1,0,0,0,rechten,1,785.8999999999069,1
3726,116,1,single,2,1,0,1,0,linken,1,585.4000000002561,1
3726,117,2,single,2,2,0,0,1,linken,1,1240.800000000163,1
3726,118,2,single,1,1,1,1,1,rechten,1,692.1000000002095,1
3726,119,1,single,2,1,1,0,1,rechten,1,671.5,1
3726,120,2,single,2,1,1,0,1,rechten,1,767.1000000002095,1
3726,121,1,single,2,2,1,1,0,linken,1,658.6000000000931,1
3726,122,1,single,1,1,0,0,0,rechten,0,1102.0000000001164,1
3726,123,2,single,2,1,0,0,0,linken,1,608.8,1
3726,124,1,single,2,2,0,1,1,rechten,1,704.5000000002328,1
3726,125,1,single,1,2,1,0,0,linken,1,647.5999999998603,1
3726,126,1,single,1,2,0,0,1,rechten,1,611.4000000001397,1
3726,127,2,single,2,1,1,0,1,rechten,1,886.8000000000466,1
3726,128,1,single,2,1,1,1,1,linken,1,674.3000000000466,1
3726,1,2,single,0,0,1,0,1,rechten,0,984.5999999999767,1
3726,2,2,single,1,1,1,1,1,linken,1,755.3999999999069,1
3726,3,2,single,1,2,1,0,0,rechten,1,667.0000000001164,1
3726,4,2,single,1,1,0,1,0,linken,1,594.7000000003027,1
3726,5,1,single,2,1,0,0,0,linken,0,626.2000000003027,1
3726,6,2,single,2,1,0,1,0,linken,1,733.1,1
3726,7,1,single,2,2,0,1,1,linken,1,657.4000000000233,1
3726,8,1,single,1,2,1,1,0,linken,1,723.8000000000466,1
3726,9,1,single,1,1,0,1,0,linken,1,784.5000000001164,1
3726,10,1,single,1,2,0,0,1,rechten,1,662.5999999998603,1
3726,11,1,single,1,2,1,0,0,rechten,1,918.1999999999534,1
3726,12,2,single,2,1,0,0,0,rechten,1,925.6,1
3726,13,2,single,1,1,0,1,0,linken,1,656.9000000002561,1
3726,14,2,single,1,2,0,0,1,linken,1,621.0999999999767,1
3726,15,2,single,1,2,1,1,0,linken,1,695.8000000002794,1
3726,16,2,single,1,1,0,1,0,rechten,1,843.7000000001863,1
3726,17,1,single,2,1,0,0,0,rechten,1,635.3000000000466,1
3726,18,2,single,2,1,0,0,0,rechten,1,1018.7000000001863,1
3726,19,1,single,2,2,0,0,1,rechten,1,813.8999999999069,1
3726,20,2,single,2,2,1,0,0,rechten,1,705.2000000001863,1
3726,21,2,single,1,1,0,0,0,linken,1,649.3000000002794,1
3726,22,1,single,2,2,0,1,1,rechten,1,668.2999999998137,1
3726,23,1,single,1,2,1,1,0,rechten,1,611.8999999999069,1
3726,24,1,single,1,2,0,0,1,rechten,1,611.3999999999069,1
3726,25,2,single,2,1,1,0,1,linken,1,575.6000000000931,1
3726,26,2,single,1,1,1,1,1,linken,1,574.6000000000931,1
3726,27,1,single,2,2,1,0,0,linken,1,934.2000000001863,1
3726,28,2,single,2,2,0,1,1,linken,1,617.3999999999069,1
3726,29,2,single,1,1,1,0,1,linken,1,740.8999999999069,1
3726,30,2,single,1,1,1,0,1,rechten,1,688.2999999998137,1
3726,31,1,single,2,1,1,1,1,linken,1,731.7000000001863,1
3726,32,2,single,2,2,1,0,0,linken,1,583.1000000000931,1
3726,33,2,single,1,1,0,1,0,rechten,1,782.6000000000931,1
3726,34,1,single,2,1,0,0,0,linken,1,774.1000000000931,1
3726,35,1,single,1,1,0,0,0,rechten,0,1197.8000000000466,1
3726,36,1,single,1,1,0,0,0,linken,1,712.7000000001863,1
3726,37,1,single,1,2,0,1,1,rechten,1,808.1000000000931,1
3726,38,1,single,1,2,1,1,0,linken,1,663.5,1
3726,39,1,single,1,2,0,1,1,rechten,1,774.9000000003725,1
3726,40,1,single,1,2,1,1,0,rechten,1,726.1000000000931,1
3726,41,2,single,2,2,0,1,1,rechten,0,685.8999999999069,1
3726,42,1,single,2,2,1,0,0,rechten,1,781.4000000001397,1
3726,43,2,single,2,1,0,0,0,linken,1,612.1,1
3726,44,2,single,1,1,0,0,0,linken,1,759.6000000000931,1
3726,45,2,single,1,2,0,1,1,rechten,1,823.2000000001863,1
3726,46,2,single,1,2,1,0,0,linken,1,902.8000000000466,1
3726,47,2,single,1,2,0,1,1,rechten,1,634.1,1
3726,48,2,single,1,1,1,0,1,linken,1,721.5000000002328,1
3726,49,2,single,1,2,1,0,0,linken,1,701.1999999999534,1
3726,50,2,single,1,1,0,1,0,rechten,1,716.6,1
3726,51,2,single,1,2,0,1,1,linken,1,652.3000000002794,1
3726,52,1,single,2,1,1,0,1,rechten,1,639.6999999999534,1
3726,53,1,single,1,2,1,0,0,linken,1,667.0000000002328,1
3726,54,1,single,1,2,0,0,1,linken,1,770.4000000001397,1
3726,55,1,single,1,2,1,1,0,rechten,1,701.8000000000466,1
3726,56,2,single,2,1,0,0,0,rechten,0,957.5000000002328,1
3726,57,2,single,1,2,0,0,1,rechten,1,1024.6000000000931,1
3726,58,1,single,2,2,1,1,0,linken,1,663.6000000000931,1
3726,59,1,single,1,1,0,1,0,rechten,1,1095.2999999998137,1
3726,60,1,single,1,2,0,0,1,linken,1,658.6,1
3726,61,1,single,1,2,1,1,0,rechten,1,854.1999999999534,1
3726,62,1,single,1,1,0,1,0,linken,1,565.7999999998137,1
3726,63,1,single,1,2,0,0,1,rechten,1,697.1999999999534,1
3726,64,2,single,2,1,1,0,1,linken,1,688.3000000000466,1
3726,65,1,single,2,1,1,0,1,linken,0,679.6999999999534,1
3726,66,2,single,2,1,1,1,1,linken,1,574.9000000003725,1
3726,67,2,single,1,1,1,1,1,linken,1,666.7000000001863,1
3726,68,2,single,1,1,1,1,1,rechten,1,890.0000000002328,1
3726,69,1,single,2,1,1,1,1,rechten,1,653.3000000002794,1
3726,70,1,single,1,1,1,0,1,linken,1,624.6000000000931,1
3726,71,2,single,2,2,1,1,0,rechten,1,856.4000000003725,1
3726,72,1,single,2,2,0,1,1,linken,1,864,1
3726,73,2,single,2,1,1,0,1,linken,1,671.3999999999069,1
3726,74,1,single,2,2,1,0,0,linken,1,718.7000000001863,1
3726,75,2,single,2,2,0,0,1,linken,1,838.2000000001863,1
3726,76,1,single,2,1,1,0,1,linken,1,749.7000000001863,1
3726,77,2,single,2,2,1,1,0,linken,1,637.2000000001863,1
3726,78,1,single,2,1,0,1,0,linken,1,868.8999999999069,1
3726,79,2,single,2,2,0,0,1,rechten,1,788.0000000002328,1
3726,80,1,single,2,2,1,1,0,rechten,1,867.6,1
3726,81,2,single,2,2,0,0,1,rechten,1,815.0000000002328,1
3726,82,1,single,2,2,1,1,0,linken,1,826.5000000002328,1
3726,83,2,single,2,2,0,1,1,rechten,1,873.9000000001397,1
3726,84,1,single,2,2,1,0,0,linken,1,1125.2000000001863,1
3726,85,2,single,2,2,0,0,1,linken,1,664.7000000001863,1
3726,86,1,single,2,1,1,0,1,rechten,0,1120.2000000001863,1
3726,87,2,single,2,1,1,1,1,rechten,0,671.1999999999534,1
3726,88,1,single,2,1,1,0,1,rechten,1,761.6999999999534,1
3726,89,1,single,1,1,1,0,1,linken,1,677.3000000000466,1
3726,90,1,single,1,2,1,0,0,rechten,1,764.7000000001863,1
3726,91,2,single,2,1,0,0,0,linken,1,552.1999999999534,1
3726,92,1,single,2,2,0,1,1,linken,1,759.7000000001863,1
3726,93,1,single,1,2,1,0,0,rechten,1,1115,1
3726,94,1,single,1,2,0,1,1,rechten,1,858.6000000000931,1
3726,95,1,single,1,1,1,1,1,linken,1,614.3000000002794,1
3726,96,2,single,2,1,1,1,1,rechten,0,613.7000000001863,1
3726,97,1,single,2,2,1,0,0,linken,1,764.3999999999069,1
3726,98,1,single,1,1,0,1,0,linken,1,703.9000000001397,1
3726,99,1,single,1,2,0,1,1,rechten,1,819.6000000000931,1
3726,100,1,single,1,1,1,1,1,linken,1,635.1999999999534,1
3726,101,2,single,2,2,1,1,0,rechten,1,714.5,1
3726,102,2,single,1,1,0,1,0,linken,1,681.7000000001863,1
3726,103,2,single,1,1,0,0,0,rechten,1,669.2999999998137,1
3726,104,1,single,2,2,0,1,1,linken,1,665,1
3726,105,2,single,2,2,1,0,0,linken,1,644.0999999998603,1
3726,106,1,single,2,1,0,1,0,rechten,1,704.0000000002328,1
3726,107,1,single,1,2,0,1,1,rechten,1,723.3000000000466,1
3726,108,2,single,2,1,1,0,1,rechten,1,698.5999999998603,1
3726,109,1,single,2,1,1,0,1,linken,1,1029.9000000003725,1
3726,110,2,single,2,2,1,0,0,rechten,1,697.6999999999534,1
3726,111,2,single,1,1,0,1,0,rechten,0,1325.1999999999534,1
3726,112,2,single,1,2,0,1,1,linken,1,587.8999999999069,1
3726,113,2,single,1,2,1,1,0,linken,1,587.3999999999069,1
3726,114,1,single,2,2,0,0,1,linken,1,851.1000000000931,1
3726,115,2,single,2,1,1,1,1,rechten,1,694.3000000000466,1
3726,116,1,single,2,1,1,1,1,linken,1,665.8000000000466,1
3726,117,2,single,2,2,1,1,0,rechten,1,857.3999999999069,1
3726,118,2,single,1,1,0,1,0,linken,1,636.6999999999534,1
3726,119,2,single,1,2,0,0,1,rechten,1,700.5,1
3726,120,1,single,2,1,1,1,1,rechten,1,779.8999999999069,1
3726,121,2,single,2,2,1,1,0,rechten,1,1135.1999999999534,1
3726,122,2,single,1,1,0,0,0,rechten,1,790.5,1
3726,123,2,single,1,2,0,1,1,linken,1,562.1000000000931,1
3726,124,1,single,2,2,1,0,0,rechten,1,701.5,1
3726,125,1,single,1,1,0,1,0,rechten,1,836.8000000002794,1
3726,126,2,single,2,2,0,0,1,rechten,1,956.5000000002328,1
3726,127,1,single,2,1,1,0,1,rechten,1,703.8999999999069,1
3726,128,1,single,1,2,1,0,0,rechten,1,839.2000000001863,1
3726,1,2,single,0,0,0,1,1,linken,1,798.0000000002328,1
3726,2,2,single,1,1,1,1,1,rechten,1,657.5000000002328,1
3726,3,2,single,1,2,1,1,0,linken,1,685.0000000002328,1
3726,4,2,single,1,1,0,1,0,linken,1,664.6999999999534,1
3726,5,2,single,1,2,0,0,1,linken,1,655.6999999999534,1
3726,6,1,single,2,2,1,1,0,linken,1,1055.600000000326,1
3726,7,2,single,2,1,0,0,0,linken,1,771.3000000000466,1
3726,8,1,single,2,2,0,1,1,rechten,1,646.9000000003725,1
3726,9,1,single,1,2,1,1,0,rechten,1,633.8000000002794,1
3726,10,2,single,2,2,0,1,1,rechten,1,705.4000000003725,1
3726,11,1,single,2,1,1,0,1,linken,1,657.1000000000931,1
3726,12,1,single,1,1,1,0,1,rechten,1,664.1000000000931,1
3726,13,2,single,2,2,1,1,0,rechten,1,688,1
3726,14,2,single,1,2,0,0,1,rechten,0,803.5,1
3726,15,1,single,2,2,1,1,0,linken,1,762.4000000003725,1
3726,16,2,single,2,1,0,0,0,linken,1,761.5,1
3726,17,2,single,1,1,0,0,0,rechten,1,753.1000000000931,1
3726,18,1,single,2,1,0,0,0,linken,1,756.7000000001863,1
3726,19,2,single,2,2,0,0,1,linken,1,648.1000000000931,1
3726,20,1,single,2,2,1,0,0,rechten,1,563.6000000000931,1
3726,21,2,single,2,1,0,1,0,rechten,1,646.8999999999069,1
3726,22,1,single,2,1,0,1,0,linken,1,650.6000000000931,1
3726,23,1,single,1,2,0,0,1,linken,1,790.1000000000931,1
3726,24,1,single,1,2,1,0,0,linken,1,821.6000000000931,1
3726,25,1,single,1,2,0,0,1,linken,1,672.8000000000466,1
3726,26,1,single,1,2,1,0,0,rechten,1,728.5000000002328,1
3726,27,1,single,1,2,0,1,1,linken,1,715.8000000000466,1
3726,28,1,single,1,1,1,1,1,rechten,1,923.4000000001397,1
3726,29,2,single,2,1,1,0,1,rechten,1,759.0000000002328,1
3726,30,2,single,1,2,1,0,0,linken,1,562.4000000001397,1
3726,31,2,single,1,1,0,1,0,rechten,1,733.5999999998603,1
3726,32,2,single,1,2,0,0,1,linken,1,593.4000000001397,1
3726,33,2,single,1,2,1,1,0,rechten,1,680.8000000000466,1
3726,34,1,single,2,1,0,0,0,rechten,1,948.3000000000466,1
3726,35,2,single,2,2,0,1,1,rechten,0,875.8000000000466,1
3726,36,2,single,1,1,1,0,1,rechten,1,1062.3000000002794,1
3726,37,1,single,2,2,1,0,0,linken,1,693.8999999999069,1
3726,38,2,single,2,2,0,1,1,linken,1,605.7000000001863,1
3726,39,1,single,2,2,1,0,0,linken,1,793,1
3726,40,2,single,2,1,0,0,0,linken,1,684.3999999999069,1
3726,41,1,single,2,2,0,0,1,rechten,1,655.8999999999069,1
3726,42,2,single,2,1,1,0,1,linken,1,663.5,1
3726,43,1,single,2,1,1,0,1,rechten,1,742.9000000001397,1
3726,44,1,single,1,1,1,0,1,rechten,1,910.5000000002328,1
3726,45,2,single,2,2,1,1,0,rechten,1,725.9000000001397,1
3726,46,2,single,1,1,0,1,0,linken,1,585.4000000001397,1
3726,47,2,single,1,1,0,1,0,linken,1,737,1
