rt,trial_index,subjectHandedness,subjectAge,subjectGender,key_press,correct_choice,coherent_movement_direction,coherence_movement,coherence_orientation,task,block,subject_id,accuracy,moving_up,moving_down,pointing_up,pointing_down
-1.0,2,r,34,f,-1.0,j,270.0,80.0,50.0,movement,0.0,1,0,20.0,80.0,50.0,50.0
1638.0,5,r,34,f,70.0,f,90.0,80.0,100.0,movement,0.0,1,1,80.0,20.0,100.0,0.0
899.0,8,r,34,f,74.0,j,270.0,100.0,100.0,movement,0.0,1,1,0.0,100.0,0.0,100.0
961.0,11,r,34,f,74.0,j,270.0,100.0,50.0,movement,0.0,1,1,0.0,100.0,50.0,50.0
1301.0,14,r,34,f,74.0,j,270.0,80.0,100.0,movement,0.0,1,1,20.0,80.0,0.0,100.0
828.0,17,r,34,f,70.0,f,90.0,100.0,100.0,movement,0.0,1,1,100.0,0.0,100.0,0.0
1368.0,20,r,34,f,70.0,f,90.0,80.0,50.0,movement,0.0,1,1,80.0,20.0,50.0,50.0
928.0,23,r,34,f,70.0,f,90.0,100.0,50.0,movement,0.0,1,1,100.0,0.0,50.0,50.0
738.99999999999,27,r,34,f,70.0,f,90.0,100.0,50.0,movement,0.0,1,1,100.0,0.0,50.0,50.0
1018.0,30,r,34,f,70.0,f,90.0,80.0,100.0,movement,0.0,1,1,80.0,20.0,100.0,0.0
867.0,33,r,34,f,74.0,j,270.0,80.0,50.0,movement,0.0,1,1,20.0,80.0,50.0,50.0
1058.0,36,r,34,f,70.0,f,90.0,80.0,50.0,movement,0.0,1,1,80.0,20.0,50.0,50.0
720.0,39,r,34,f,74.0,j,270.0,80.0,100.0,movement,0.0,1,1,20.0,80.0,0.0,100.0
768.0,42,r,34,f,74.0,j,270.0,100.0,50.0,movement,0.0,1,1,0.0,100.0,50.0,50.0
908.99999999999,45,r,34,f,74.0,j,270.0,100.0,100.0,movement,0.0,1,1,0.0,100.0,0.0,100.0
808.0,48,r,34,f,70.0,f,90.0,100.0,100.0,movement,0.0,1,1,100.0,0.0,100.0,0.0
1557.0,52,r,34,f,70.0,j,270.0,65.0,50.0,movement,1.0,1,0,35.0,65.0,50.0,50.0
-1.0,55,r,34,f,-1.0,j,270.0,30.0,23.076923076923077,movement,1.0,1,0,70.0,30.0,23.076923076923077,23.076923076923077
1060.0,58,r,34,f,74.0,j,270.0,65.0,50.0,movement,1.0,1,1,35.0,65.0,50.0,50.0
1326.0,61,r,34,f,74.0,j,270.0,65.0,50.0,movement,1.0,1,1,35.0,65.0,50.0,50.0
1465.0,64,r,34,f,70.0,f,90.0,30.0,23.076923076923077,movement,1.0,1,1,30.0,70.0,23.076923076923077,23.076923076923077
1085.0,67,r,34,f,70.0,f,90.0,30.0,23.076923076923077,movement,1.0,1,1,30.0,70.0,23.076923076923077,23.076923076923077
1067.0,70,r,34,f,70.0,f,90.0,30.0,23.076923076923077,movement,1.0,1,1,30.0,70.0,23.076923076923077,23.076923076923077
964.0,73,r,34,f,74.0,j,270.0,30.0,23.076923076923077,movement,1.0,1,1,70.0,30.0,23.076923076923077,23.076923076923077
954.0,76,r,34,f,70.0,f,90.0,30.0,23.076923076923077,movement,1.0,1,1,30.0,70.0,23.076923076923077,23.076923076923077
916.0,79,r,34,f,74.0,j,270.0,30.0,23.076923076923077,movement,1.0,1,1,70.0,30.0,23.076923076923077,23.076923076923077
904.99999999999,82,r,34,f,70.0,f,90.0,30.0,23.076923076923077,movement,1.0,1,1,30.0,70.0,23.076923076923077,23.076923076923077
959.0,85,r,34,f,74.0,f,90.0,65.0,50.0,movement,1.0,1,0,65.0,35.0,50.0,50.0
960.00000000001,88,r,34,f,70.0,f,90.0,65.0,50.0,movement,1.0,1,1,65.0,35.0,50.0,50.0
963.99999999999,91,r,34,f,70.0,j,270.0,65.0,50.0,movement,1.0,1,0,35.0,65.0,50.0,50.0
1324.0,94,r,34,f,74.0,f,90.0,65.0,50.0,movement,1.0,1,0,65.0,35.0,50.0,50.0
982.0,97,r,34,f,74.0,j,270.0,65.0,50.0,movement,1.0,1,1,35.0,65.0,50.0,50.0
910.0,100,r,34,f,70.0,f,90.0,65.0,50.0,movement,1.0,1,1,65.0,35.0,50.0,50.0
954.0,103,r,34,f,70.0,j,270.0,65.0,50.0,movement,1.0,1,0,35.0,65.0,50.0,50.0
1246.0,106,r,34,f,74.0,f,90.0,65.0,50.0,movement,1.0,1,0,65.0,35.0,50.0,50.0
1414.0,109,r,34,f,70.0,j,270.0,30.0,23.076923076923077,movement,1.0,1,0,70.0,30.0,23.076923076923077,23.076923076923077
766.0,112,r,34,f,70.0,f,90.0,65.0,50.0,movement,1.0,1,1,65.0,35.0,50.0,50.0
1277.0,115,r,34,f,70.0,j,270.0,65.0,50.0,movement,1.0,1,0,35.0,65.0,50.0,50.0
1262.0,118,r,34,f,74.0,j,270.0,65.0,50.0,movement,1.0,1,1,35.0,65.0,50.0,50.0
1020.0,121,r,34,f,74.0,j,270.0,65.0,50.0,movement,1.0,1,1,35.0,65.0,50.0,50.0
1035.0,124,r,34,f,70.0,f,90.0,65.0,50.0,movement,1.0,1,1,65.0,35.0,50.0,50.0
841.0,127,r,34,f,74.0,j,270.0,65.0,50.0,movement,1.0,1,1,35.0,65.0,50.0,50.0
1083.0,130,r,34,f,74.0,j,270.0,65.0,50.0,movement,1.0,1,1,35.0,65.0,50.0,50.0
984.0,133,r,34,f,74.0,j,270.0,65.0,50.0,movement,1.0,1,1,35.0,65.0,50.0,50.0
986.00000000003,136,r,34,f,70.0,f,90.0,65.0,50.0,movement,1.0,1,1,65.0,35.0,50.0,50.0
1046.0,139,r,34,f,74.0,j,270.0,65.0,50.0,movement,1.0,1,1,35.0,65.0,50.0,50.0
958.00000000003,142,r,34,f,70.0,f,90.0,65.0,50.0,movement,1.0,1,1,65.0,35.0,50.0,50.0
1126.0,145,r,34,f,74.0,j,270.0,30.0,23.076923076923077,movement,1.0,1,1,70.0,30.0,23.076923076923077,23.076923076923077
980.0,148,r,34,f,74.0,j,270.0,65.0,50.0,movement,1.0,1,1,35.0,65.0,50.0,50.0
990.0,151,r,34,f,74.0,j,270.0,65.0,50.0,movement,1.0,1,1,35.0,65.0,50.0,50.0
935.0,154,r,34,f,70.0,f,90.0,65.0,50.0,movement,1.0,1,1,65.0,35.0,50.0,50.0
940.0,157,r,34,f,70.0,f,90.0,65.0,50.0,movement,1.0,1,1,65.0,35.0,50.0,50.0
853.0,160,r,34,f,70.0,f,90.0,65.0,50.0,movement,1.0,1,1,65.0,35.0,50.0,50.0
953.0,163,r,34,f,74.0,j,270.0,65.0,50.0,movement,1.0,1,1,35.0,65.0,50.0,50.0
1158.0,166,r,34,f,70.0,f,90.0,65.0,50.0,movement,1.0,1,1,65.0,35.0,50.0,50.0
1206.0,169,r,34,f,70.0,f,90.0,65.0,50.0,movement,1.0,1,1,65.0,35.0,50.0,50.0
1195.0,172,r,34,f,70.0,j,270.0,65.0,50.0,movement,1.0,1,0,35.0,65.0,50.0,50.0
1380.0,175,r,34,f,70.0,j,270.0,65.0,50.0,movement,1.0,1,0,35.0,65.0,50.0,50.0
1160.0,178,r,34,f,70.0,f,90.0,65.0,50.0,movement,1.0,1,1,65.0,35.0,50.0,50.0
1184.0,181,r,34,f,70.0,j,270.0,65.0,50.0,movement,1.0,1,0,35.0,65.0,50.0,50.0
1158.0,184,r,34,f,70.0,f,90.0,65.0,50.0,movement,1.0,1,1,65.0,35.0,50.0,50.0
1119.0,187,r,34,f,70.0,f,90.0,65.0,50.0,movement,1.0,1,1,65.0,35.0,50.0,50.0
918.99999999997,190,r,34,f,74.0,j,270.0,65.0,50.0,movement,1.0,1,1,35.0,65.0,50.0,50.0
990.0,193,r,34,f,70.0,f,90.0,65.0,50.0,movement,1.0,1,1,65.0,35.0,50.0,50.0
1465.0,196,r,34,f,74.0,f,90.0,65.0,50.0,movement,1.0,1,0,65.0,35.0,50.0,50.0
1203.0,199,r,34,f,74.0,j,270.0,65.0,50.0,movement,1.0,1,1,35.0,65.0,50.0,50.0
1159.0,202,r,34,f,70.0,f,90.0,65.0,50.0,movement,1.0,1,1,65.0,35.0,50.0,50.0
1290.0,205,r,34,f,70.0,j,270.0,65.0,50.0,movement,1.0,1,0,35.0,65.0,50.0,50.0
1400.0,208,r,34,f,74.0,j,270.0,65.0,50.0,movement,1.0,1,1,35.0,65.0,50.0,50.0
1161.0,211,r,34,f,70.0,f,90.0,65.0,50.0,movement,1.0,1,1,65.0,35.0,50.0,50.0
1103.0,214,r,34,f,74.0,j,270.0,65.0,50.0,movement,1.0,1,1,35.0,65.0,50.0,50.0
1428.0,217,r,34,f,74.0,j,270.0,65.0,50.0,movement,1.0,1,1,35.0,65.0,50.0,50.0
1080.0,220,r,34,f,70.0,f,90.0,65.0,50.0,movement,1.0,1,1,65.0,35.0,50.0,50.0
1621.0,223,r,34,f,74.0,j,270.0,65.0,50.0,movement,1.0,1,1,35.0,65.0,50.0,50.0
1268.0,226,r,34,f,70.0,f,90.0,65.0,50.0,movement,1.0,1,1,65.0,35.0,50.0,50.0
1300.0,229,r,34,f,70.0,f,90.0,65.0,50.0,movement,1.0,1,1,65.0,35.0,50.0,50.0
1201.0,232,r,34,f,70.0,f,90.0,65.0,50.0,movement,1.0,1,1,65.0,35.0,50.0,50.0
959.0,235,r,34,f,74.0,f,90.0,65.0,50.0,movement,1.0,1,0,65.0,35.0,50.0,50.0
1341.0,238,r,34,f,74.0,j,270.0,65.0,50.0,movement,1.0,1,1,35.0,65.0,50.0,50.0
1324.0,241,r,34,f,74.0,j,270.0,65.0,50.0,movement,1.0,1,1,35.0,65.0,50.0,50.0
1186.0,244,r,34,f,70.0,f,90.0,65.0,50.0,movement,1.0,1,1,65.0,35.0,50.0,50.0
1345.0,247,r,34,f,70.0,j,270.0,65.0,50.0,movement,1.0,1,0,35.0,65.0,50.0,50.0
1165.0,250,r,34,f,70.0,f,90.0,30.0,23.076923076923077,movement,1.0,1,1,30.0,70.0,23.076923076923077,23.076923076923077
1288.0,253,r,34,f,74.0,f,90.0,65.0,50.0,movement,1.0,1,0,65.0,35.0,50.0,50.0
1172.0,256,r,34,f,70.0,j,270.0,65.0,50.0,movement,1.0,1,0,35.0,65.0,50.0,50.0
1687.0,259,r,34,f,74.0,j,270.0,30.0,23.076923076923077,movement,1.0,1,1,70.0,30.0,23.076923076923077,23.076923076923077
1009.0,262,r,34,f,70.0,f,90.0,65.0,50.0,movement,1.0,1,1,65.0,35.0,50.0,50.0
1197.0,265,r,34,f,74.0,f,90.0,65.0,50.0,movement,1.0,1,0,65.0,35.0,50.0,50.0
1766.0,269,r,34,f,74.0,j,270.0,60.0,75.0,movement,2.0,1,1,40.0,60.0,25.0,75.0
1310.0,272,r,34,f,74.0,j,270.0,60.0,100.0,movement,2.0,1,1,40.0,60.0,0.0,100.0
1017.0,275,r,34,f,70.0,f,90.0,90.0,75.0,movement,2.0,1,1,90.0,10.0,75.0,25.0
1640.0,278,r,34,f,70.0,j,270.0,60.0,0.0,movement,2.0,1,0,40.0,60.0,100.0,0.0
898.0,281,r,34,f,74.0,j,270.0,90.0,25.0,movement,2.0,1,1,10.0,90.0,75.0,25.0
1063.0,284,r,34,f,70.0,f,90.0,60.0,75.0,movement,2.0,1,1,60.0,40.0,75.0,25.0
900.0,287,r,34,f,70.0,f,90.0,75.0,0.0,movement,2.0,1,1,75.0,25.0,0.0,100.0
1007.0,290,r,34,f,70.0,f,90.0,90.0,0.0,movement,2.0,1,1,90.0,10.0,0.0,100.0
1248.0,293,r,34,f,70.0,f,90.0,60.0,100.0,movement,2.0,1,1,60.0,40.0,100.0,0.0
1163.0,296,r,34,f,70.0,j,270.0,60.0,25.0,movement,2.0,1,0,40.0,60.0,75.0,25.0
947.0,299,r,34,f,70.0,f,90.0,90.0,25.0,movement,2.0,1,1,90.0,10.0,25.0,75.0
885.00000000003,302,r,34,f,74.0,j,270.0,75.0,75.0,movement,2.0,1,1,25.0,75.0,25.0,75.0
927.00000000003,305,r,34,f,74.0,j,270.0,75.0,100.0,movement,2.0,1,1,25.0,75.0,0.0,100.0
981.0,308,r,34,f,74.0,j,270.0,90.0,75.0,movement,2.0,1,1,10.0,90.0,25.0,75.0
1152.0,311,r,34,f,70.0,f,90.0,75.0,25.0,movement,2.0,1,1,75.0,25.0,25.0,75.0
1308.0,314,r,34,f,74.0,j,270.0,75.0,0.0,movement,2.0,1,1,25.0,75.0,100.0,0.0
1048.0,317,r,34,f,74.0,j,270.0,75.0,25.0,movement,2.0,1,1,25.0,75.0,75.0,25.0
962.99999999997,320,r,34,f,70.0,f,90.0,75.0,100.0,movement,2.0,1,1,75.0,25.0,100.0,0.0
864.00000000003,323,r,34,f,70.0,f,90.0,90.0,100.0,movement,2.0,1,1,90.0,10.0,100.0,0.0
1416.0,326,r,34,f,70.0,f,90.0,60.0,25.0,movement,2.0,1,1,60.0,40.0,25.0,75.0
813.00000000006,329,r,34,f,74.0,j,270.0,90.0,0.0,movement,2.0,1,1,10.0,90.0,100.0,0.0
1208.0,332,r,34,f,70.0,f,90.0,75.0,75.0,movement,2.0,1,1,75.0,25.0,75.0,25.0
1027.0,335,r,34,f,74.0,j,270.0,90.0,100.0,movement,2.0,1,1,10.0,90.0,0.0,100.0
1203.0000000001,338,r,34,f,70.0,f,90.0,60.0,0.0,movement,2.0,1,1,60.0,40.0,0.0,100.0
899.0,342,r,34,f,70.0,f,90.0,75.0,75.0,movement,3.0,1,1,75.0,25.0,75.0,25.0
1175.0,345,r,34,f,74.0,j,270.0,75.0,100.0,movement,3.0,1,1,25.0,75.0,0.0,100.0
939.0,348,r,34,f,70.0,j,270.0,60.0,100.0,movement,3.0,1,0,40.0,60.0,0.0,100.0
1022.0,351,r,34,f,74.0,j,270.0,90.0,0.0,movement,3.0,1,1,10.0,90.0,100.0,0.0
1308.9999999999,354,r,34,f,74.0,j,270.0,90.0,75.0,movement,3.0,1,1,10.0,90.0,25.0,75.0
1096.0,357,r,34,f,70.0,f,90.0,60.0,75.0,movement,3.0,1,1,60.0,40.0,75.0,25.0
947.0,360,r,34,f,74.0,j,270.0,60.0,0.0,movement,3.0,1,1,40.0,60.0,100.0,0.0
1356.0,363,r,34,f,70.0,f,90.0,60.0,0.0,movement,3.0,1,1,60.0,40.0,0.0,100.0
1021.9999999999,366,r,34,f,74.0,f,90.0,60.0,25.0,movement,3.0,1,0,60.0,40.0,25.0,75.0
1279.0,369,r,34,f,70.0,j,270.0,60.0,25.0,movement,3.0,1,0,40.0,60.0,75.0,25.0
899.0,372,r,34,f,70.0,f,90.0,75.0,100.0,movement,3.0,1,1,75.0,25.0,100.0,0.0
794.99999999994,375,r,34,f,74.0,j,270.0,90.0,100.0,movement,3.0,1,1,10.0,90.0,0.0,100.0
1304.0,378,r,34,f,70.0,f,90.0,90.0,75.0,movement,3.0,1,1,90.0,10.0,75.0,25.0
1190.0,381,r,34,f,74.0,j,270.0,75.0,0.0,movement,3.0,1,1,25.0,75.0,100.0,0.0
1209.0,384,r,34,f,74.0,j,270.0,75.0,25.0,movement,3.0,1,1,25.0,75.0,75.0,25.0
1242.0,387,r,34,f,70.0,f,90.0,90.0,100.0,movement,3.0,1,1,90.0,10.0,100.0,0.0
794.0,390,r,34,f,74.0,j,270.0,75.0,75.0,movement,3.0,1,1,25.0,75.0,25.0,75.0
1125.0,393,r,34,f,70.0,f,90.0,60.0,100.0,movement,3.0,1,1,60.0,40.0,100.0,0.0
915.0,396,r,34,f,74.0,j,270.0,90.0,25.0,movement,3.0,1,1,10.0,90.0,75.0,25.0
1220.0,399,r,34,f,70.0,f,90.0,90.0,25.0,movement,3.0,1,1,90.0,10.0,25.0,75.0
1116.9999999999,402,r,34,f,74.0,j,270.0,60.0,75.0,movement,3.0,1,1,40.0,60.0,25.0,75.0
891.0,405,r,34,f,70.0,f,90.0,75.0,0.0,movement,3.0,1,1,75.0,25.0,0.0,100.0
1264.0,408,r,34,f,70.0,f,90.0,75.0,25.0,movement,3.0,1,1,75.0,25.0,25.0,75.0
1259.0,411,r,34,f,70.0,f,90.0,90.0,0.0,movement,3.0,1,1,90.0,10.0,0.0,100.0
814.0,415,r,34,f,70.0,f,90.0,75.0,25.0,movement,4.0,1,1,75.0,25.0,25.0,75.0
952.0,418,r,34,f,70.0,f,90.0,60.0,75.0,movement,4.0,1,1,60.0,40.0,75.0,25.0
1118.0,421,r,34,f,74.0,f,90.0,60.0,25.0,movement,4.0,1,0,60.0,40.0,25.0,75.0
1228.0,424,r,34,f,70.0,f,90.0,75.0,100.0,movement,4.0,1,1,75.0,25.0,100.0,0.0
1633.0,427,r,34,f,70.0,f,90.0,90.0,25.0,movement,4.0,1,1,90.0,10.0,25.0,75.0
1326.0,430,r,34,f,70.0,f,90.0,60.0,100.0,movement,4.0,1,1,60.0,40.0,100.0,0.0
1197.9999999999,433,r,34,f,74.0,j,270.0,60.0,75.0,movement,4.0,1,1,40.0,60.0,25.0,75.0
1265.0,436,r,34,f,74.0,j,270.0,90.0,25.0,movement,4.0,1,1,10.0,90.0,75.0,25.0
1323.0,439,r,34,f,70.0,f,90.0,75.0,0.0,movement,4.0,1,1,75.0,25.0,0.0,100.0
1158.0,442,r,34,f,74.0,f,90.0,60.0,0.0,movement,4.0,1,0,60.0,40.0,0.0,100.0
1117.0,445,r,34,f,70.0,f,90.0,90.0,0.0,movement,4.0,1,1,90.0,10.0,0.0,100.0
1006.0,448,r,34,f,74.0,j,270.0,75.0,75.0,movement,4.0,1,1,25.0,75.0,25.0,75.0
1491.0,451,r,34,f,70.0,f,90.0,90.0,75.0,movement,4.0,1,1,90.0,10.0,75.0,25.0
1212.0000000001,454,r,34,f,74.0,j,270.0,75.0,0.0,movement,4.0,1,1,25.0,75.0,100.0,0.0
996.0,457,r,34,f,70.0,f,90.0,90.0,100.0,movement,4.0,1,1,90.0,10.0,100.0,0.0
1108.0,460,r,34,f,70.0,f,90.0,75.0,75.0,movement,4.0,1,1,75.0,25.0,75.0,25.0
1248.0,463,r,34,f,70.0,j,270.0,60.0,0.0,movement,4.0,1,0,40.0,60.0,100.0,0.0
914.0,466,r,34,f,74.0,j,270.0,75.0,25.0,movement,4.0,1,1,25.0,75.0,75.0,25.0
1581.0,469,r,34,f,74.0,j,270.0,90.0,75.0,movement,4.0,1,1,10.0,90.0,25.0,75.0
1324.0,472,r,34,f,74.0,j,270.0,90.0,100.0,movement,4.0,1,1,10.0,90.0,0.0,100.0
1119.0,475,r,34,f,74.0,j,270.0,60.0,25.0,movement,4.0,1,1,40.0,60.0,75.0,25.0
1213.0,478,r,34,f,74.0,j,270.0,75.0,100.0,movement,4.0,1,1,25.0,75.0,0.0,100.0
1208.0000000001,481,r,34,f,74.0,j,270.0,90.0,0.0,movement,4.0,1,1,10.0,90.0,100.0,0.0
1409.0,484,r,34,f,74.0,j,270.0,60.0,100.0,movement,4.0,1,1,40.0,60.0,0.0,100.0
1396.0,488,r,34,f,74.0,j,270.0,75.0,25.0,movement,5.0,1,1,25.0,75.0,75.0,25.0
1409.9999999999,491,r,34,f,74.0,j,270.0,90.0,75.0,movement,5.0,1,1,10.0,90.0,25.0,75.0
1376.0000000001,494,r,34,f,74.0,j,270.0,75.0,75.0,movement,5.0,1,1,25.0,75.0,25.0,75.0
1225.0,497,r,34,f,70.0,f,90.0,75.0,0.0,movement,5.0,1,1,75.0,25.0,0.0,100.0
1139.9999999999,500,r,34,f,74.0,j,270.0,75.0,0.0,movement,5.0,1,1,25.0,75.0,100.0,0.0
1223.0,503,r,34,f,74.0,j,270.0,60.0,25.0,movement,5.0,1,1,40.0,60.0,75.0,25.0
1246.0,506,r,34,f,74.0,j,270.0,75.0,100.0,movement,5.0,1,1,25.0,75.0,0.0,100.0
944.99999999994,509,r,34,f,70.0,f,90.0,75.0,75.0,movement,5.0,1,1,75.0,25.0,75.0,25.0
1383.0,512,r,34,f,70.0,j,270.0,60.0,100.0,movement,5.0,1,0,40.0,60.0,0.0,100.0
1253.0,515,r,34,f,70.0,f,90.0,60.0,100.0,movement,5.0,1,1,60.0,40.0,100.0,0.0
1587.0,518,r,34,f,70.0,f,90.0,90.0,25.0,movement,5.0,1,1,90.0,10.0,25.0,75.0
1469.9999999999,521,r,34,f,74.0,j,270.0,90.0,25.0,movement,5.0,1,1,10.0,90.0,75.0,25.0
1432.0,524,r,34,f,70.0,f,90.0,60.0,25.0,movement,5.0,1,1,60.0,40.0,25.0,75.0
1666.9999999999,527,r,34,f,70.0,f,90.0,90.0,75.0,movement,5.0,1,1,90.0,10.0,75.0,25.0
1647.9999999999,530,r,34,f,70.0,f,90.0,90.0,100.0,movement,5.0,1,1,90.0,10.0,100.0,0.0
1505.0000000001,533,r,34,f,70.0,f,90.0,75.0,100.0,movement,5.0,1,1,75.0,25.0,100.0,0.0
1578.0,536,r,34,f,70.0,f,90.0,90.0,0.0,movement,5.0,1,1,90.0,10.0,0.0,100.0
1426.0,539,r,34,f,74.0,j,270.0,60.0,0.0,movement,5.0,1,1,40.0,60.0,100.0,0.0
1625.0,542,r,34,f,74.0,j,270.0,90.0,100.0,movement,5.0,1,1,10.0,90.0,0.0,100.0
1633.0,545,r,34,f,70.0,f,90.0,60.0,75.0,movement,5.0,1,1,60.0,40.0,75.0,25.0
1305.0,548,r,34,f,74.0,j,270.0,90.0,0.0,movement,5.0,1,1,10.0,90.0,100.0,0.0
1285.0,551,r,34,f,70.0,f,90.0,60.0,0.0,movement,5.0,1,1,60.0,40.0,0.0,100.0
1538.9999999999,554,r,34,f,70.0,f,90.0,75.0,25.0,movement,5.0,1,1,75.0,25.0,25.0,75.0
1507.0,557,r,34,f,70.0,j,270.0,60.0,75.0,movement,5.0,1,0,40.0,60.0,25.0,75.0
-1.0,2,r,23,m,-1.0,f,90.0,100.0,100.0,movement,0.0,2,0,100.0,0.0,100.0,0.0
801.0,5,r,23,m,70.0,f,90.0,80.0,100.0,movement,0.0,2,1,80.0,20.0,100.0,0.0
1422.0,8,r,23,m,70.0,f,90.0,100.0,50.0,movement,0.0,2,1,100.0,0.0,50.0,50.0
1663.0,11,r,23,m,70.0,f,90.0,80.0,50.0,movement,0.0,2,1,80.0,20.0,50.0,50.0
856.0,14,r,23,m,74.0,j,270.0,100.0,100.0,movement,0.0,2,1,0.0,100.0,0.0,100.0
915.0,17,r,23,m,74.0,j,270.0,100.0,50.0,movement,0.0,2,1,0.0,100.0,50.0,50.0
630.0,20,r,23,m,74.0,j,270.0,80.0,100.0,movement,0.0,2,1,20.0,80.0,0.0,100.0
642.0,23,r,23,m,74.0,j,270.0,80.0,50.0,movement,0.0,2,1,20.0,80.0,50.0,50.0
744.0,27,r,23,m,70.0,f,90.0,100.0,100.0,movement,0.0,2,1,100.0,0.0,100.0,0.0
592.0,30,r,23,m,70.0,f,90.0,100.0,50.0,movement,0.0,2,1,100.0,0.0,50.0,50.0
794.0,33,r,23,m,70.0,f,90.0,80.0,100.0,movement,0.0,2,1,80.0,20.0,100.0,0.0
682.0,36,r,23,m,70.0,f,90.0,80.0,50.0,movement,0.0,2,1,80.0,20.0,50.0,50.0
583.0,39,r,23,m,74.0,j,270.0,100.0,100.0,movement,0.0,2,1,0.0,100.0,0.0,100.0
561.0,42,r,23,m,74.0,j,270.0,80.0,100.0,movement,0.0,2,1,20.0,80.0,0.0,100.0
561.0,45,r,23,m,74.0,j,270.0,100.0,50.0,movement,0.0,2,1,0.0,100.0,50.0,50.0
626.0,48,r,23,m,74.0,j,270.0,80.0,50.0,movement,0.0,2,1,20.0,80.0,50.0,50.0
916.0,52,r,23,m,70.0,j,270.0,65.0,50.0,movement,1.0,2,0,35.0,65.0,50.0,50.0
1830.0,55,r,23,m,74.0,f,90.0,65.0,50.0,movement,1.0,2,0,65.0,35.0,50.0,50.0
1350.0,58,r,23,m,70.0,f,90.0,65.0,50.0,movement,1.0,2,1,65.0,35.0,50.0,50.0
1034.0,61,r,23,m,70.0,f,90.0,65.0,50.0,movement,1.0,2,1,65.0,35.0,50.0,50.0
1180.0,64,r,23,m,70.0,j,270.0,65.0,50.0,movement,1.0,2,0,35.0,65.0,50.0,50.0
1020.0,67,r,23,m,74.0,j,270.0,65.0,50.0,movement,1.0,2,1,35.0,65.0,50.0,50.0
772.0,70,r,23,m,74.0,f,90.0,65.0,50.0,movement,1.0,2,0,65.0,35.0,50.0,50.0
1134.0,73,r,23,m,70.0,j,270.0,65.0,50.0,movement,1.0,2,0,35.0,65.0,50.0,50.0
1361.0,76,r,23,m,74.0,j,270.0,65.0,50.0,movement,1.0,2,1,35.0,65.0,50.0,50.0
1262.0,79,r,23,m,74.0,j,270.0,65.0,50.0,movement,1.0,2,1,35.0,65.0,50.0,50.0
1123.0,82,r,23,m,70.0,f,90.0,65.0,50.0,movement,1.0,2,1,65.0,35.0,50.0,50.0
1115.0,85,r,23,m,74.0,j,270.0,65.0,50.0,movement,1.0,2,1,35.0,65.0,50.0,50.0
1163.0,88,r,23,m,74.0,f,90.0,65.0,50.0,movement,1.0,2,0,65.0,35.0,50.0,50.0
1250.0,91,r,23,m,70.0,f,90.0,65.0,50.0,movement,1.0,2,1,65.0,35.0,50.0,50.0
937.0,94,r,23,m,74.0,j,270.0,65.0,50.0,movement,1.0,2,1,35.0,65.0,50.0,50.0
1132.0,97,r,23,m,70.0,f,90.0,65.0,50.0,movement,1.0,2,1,65.0,35.0,50.0,50.0
1043.0,100,r,23,m,70.0,f,90.0,65.0,50.0,movement,1.0,2,1,65.0,35.0,50.0,50.0
1655.0,103,r,23,m,74.0,j,270.0,65.0,50.0,movement,1.0,2,1,35.0,65.0,50.0,50.0
1082.0,106,r,23,m,74.0,j,270.0,65.0,50.0,movement,1.0,2,1,35.0,65.0,50.0,50.0
1381.0,109,r,23,m,70.0,f,90.0,65.0,50.0,movement,1.0,2,1,65.0,35.0,50.0,50.0
1640.0,112,r,23,m,70.0,f,90.0,65.0,50.0,movement,1.0,2,1,65.0,35.0,50.0,50.0
1326.0,115,r,23,m,74.0,j,270.0,65.0,50.0,movement,1.0,2,1,35.0,65.0,50.0,50.0
1271.0,118,r,23,m,70.0,f,90.0,65.0,50.0,movement,1.0,2,1,65.0,35.0,50.0,50.0
1717.0,121,r,23,m,74.0,j,270.0,65.0,50.0,movement,1.0,2,1,35.0,65.0,50.0,50.0
1110.0,124,r,23,m,74.0,j,270.0,65.0,50.0,movement,1.0,2,1,35.0,65.0,50.0,50.0
964.0,127,r,23,m,70.0,f,90.0,65.0,50.0,movement,1.0,2,1,65.0,35.0,50.0,50.0
1072.0,130,r,23,m,74.0,j,270.0,65.0,50.0,movement,1.0,2,1,35.0,65.0,50.0,50.0
1209.0,133,r,23,m,74.0,f,90.0,65.0,50.0,movement,1.0,2,0,65.0,35.0,50.0,50.0
1044.0,136,r,23,m,74.0,j,270.0,65.0,50.0,movement,1.0,2,1,35.0,65.0,50.0,50.0
1163.0,139,r,23,m,70.0,j,270.0,65.0,50.0,movement,1.0,2,0,35.0,65.0,50.0,50.0
1884.0,142,r,23,m,74.0,f,90.0,65.0,50.0,movement,1.0,2,0,65.0,35.0,50.0,50.0
1146.0,145,r,23,m,70.0,f,90.0,65.0,50.0,movement,1.0,2,1,65.0,35.0,50.0,50.0
1846.0,148,r,23,m,70.0,f,90.0,65.0,50.0,movement,1.0,2,1,65.0,35.0,50.0,50.0
1235.0,151,r,23,m,70.0,j,270.0,65.0,50.0,movement,1.0,2,0,35.0,65.0,50.0,50.0
1196.0,154,r,23,m,74.0,f,90.0,65.0,50.0,movement,1.0,2,0,65.0,35.0,50.0,50.0
1185.0,157,r,23,m,70.0,f,90.0,65.0,50.0,movement,1.0,2,1,65.0,35.0,50.0,50.0
1102.0,160,r,23,m,74.0,j,270.0,65.0,50.0,movement,1.0,2,1,35.0,65.0,50.0,50.0
1586.0,163,r,23,m,70.0,f,90.0,65.0,50.0,movement,1.0,2,1,65.0,35.0,50.0,50.0
1488.0,166,r,23,m,70.0,f,90.0,65.0,50.0,movement,1.0,2,1,65.0,35.0,50.0,50.0
1656.0,169,r,23,m,70.0,f,90.0,65.0,50.0,movement,1.0,2,1,65.0,35.0,50.0,50.0
1104.0,172,r,23,m,74.0,j,270.0,65.0,50.0,movement,1.0,2,1,35.0,65.0,50.0,50.0
1313.0,175,r,23,m,70.0,j,270.0,65.0,50.0,movement,1.0,2,0,35.0,65.0,50.0,50.0
904.0,178,r,23,m,74.0,j,270.0,65.0,50.0,movement,1.0,2,1,35.0,65.0,50.0,50.0
1023.0,181,r,23,m,74.0,j,270.0,65.0,50.0,movement,1.0,2,1,35.0,65.0,50.0,50.0
988.0,184,r,23,m,70.0,f,90.0,65.0,50.0,movement,1.0,2,1,65.0,35.0,50.0,50.0
1512.0,187,r,23,m,70.0,f,90.0,65.0,50.0,movement,1.0,2,1,65.0,35.0,50.0,50.0
1208.0,190,r,23,m,70.0,f,90.0,65.0,50.0,movement,1.0,2,1,65.0,35.0,50.0,50.0
958.0,193,r,23,m,70.0,j,270.0,65.0,50.0,movement,1.0,2,0,35.0,65.0,50.0,50.0
-1.0,196,r,23,m,-1.0,j,270.0,65.0,50.0,movement,1.0,2,0,35.0,65.0,50.0,50.0
1430.0,199,r,23,m,70.0,f,90.0,65.0,50.0,movement,1.0,2,1,65.0,35.0,50.0,50.0
1561.0,202,r,23,m,74.0,j,270.0,65.0,50.0,movement,1.0,2,1,35.0,65.0,50.0,50.0
1369.0,205,r,23,m,74.0,j,270.0,65.0,50.0,movement,1.0,2,1,35.0,65.0,50.0,50.0
1671.0,208,r,23,m,70.0,f,90.0,65.0,50.0,movement,1.0,2,1,65.0,35.0,50.0,50.0
1551.0,211,r,23,m,74.0,j,270.0,65.0,50.0,movement,1.0,2,1,35.0,65.0,50.0,50.0
1447.0,214,r,23,m,70.0,f,90.0,65.0,50.0,movement,1.0,2,1,65.0,35.0,50.0,50.0
1247.0,217,r,23,m,74.0,j,270.0,65.0,50.0,movement,1.0,2,1,35.0,65.0,50.0,50.0
1268.0,220,r,23,m,70.0,f,90.0,65.0,50.0,movement,1.0,2,1,65.0,35.0,50.0,50.0
1817.0,223,r,23,m,74.0,j,270.0,65.0,50.0,movement,1.0,2,1,35.0,65.0,50.0,50.0
1126.0,226,r,23,m,70.0,f,90.0,65.0,50.0,movement,1.0,2,1,65.0,35.0,50.0,50.0
1588.0,229,r,23,m,70.0,f,90.0,65.0,50.0,movement,1.0,2,1,65.0,35.0,50.0,50.0
-1.0,232,r,23,m,-1.0,j,270.0,30.0,23.076923076923077,movement,1.0,2,0,70.0,30.0,23.076923076923077,23.076923076923077
850.0,235,r,23,m,74.0,j,270.0,30.0,23.076923076923077,movement,1.0,2,1,70.0,30.0,23.076923076923077,23.076923076923077
1191.0,238,r,23,m,74.0,j,270.0,30.0,23.076923076923077,movement,1.0,2,1,70.0,30.0,23.076923076923077,23.076923076923077
1201.0,241,r,23,m,70.0,f,90.0,30.0,23.076923076923077,movement,1.0,2,1,30.0,70.0,23.076923076923077,23.076923076923077
1479.0,244,r,23,m,74.0,f,90.0,30.0,23.076923076923077,movement,1.0,2,0,30.0,70.0,23.076923076923077,23.076923076923077
1310.0,247,r,23,m,74.0,j,270.0,30.0,23.076923076923077,movement,1.0,2,1,70.0,30.0,23.076923076923077,23.076923076923077
874.0,250,r,23,m,74.0,j,270.0,30.0,23.076923076923077,movement,1.0,2,1,70.0,30.0,23.076923076923077,23.076923076923077
1658.0,253,r,23,m,70.0,f,90.0,30.0,23.076923076923077,movement,1.0,2,1,30.0,70.0,23.076923076923077,23.076923076923077
1249.0,256,r,23,m,74.0,j,270.0,30.0,23.076923076923077,movement,1.0,2,1,70.0,30.0,23.076923076923077,23.076923076923077
1148.0,259,r,23,m,70.0,f,90.0,30.0,23.076923076923077,movement,1.0,2,1,30.0,70.0,23.076923076923077,23.076923076923077
1521.0,262,r,23,m,70.0,f,90.0,30.0,23.076923076923077,movement,1.0,2,1,30.0,70.0,23.076923076923077,23.076923076923077
1138.0,265,r,23,m,74.0,j,270.0,30.0,23.076923076923077,movement,1.0,2,1,70.0,30.0,23.076923076923077,23.076923076923077
-1.0,269,r,23,m,-1.0,j,270.0,90.0,75.0,movement,2.0,2,0,10.0,90.0,25.0,75.0
1235.0,272,r,23,m,74.0,f,90.0,90.0,25.0,movement,2.0,2,0,90.0,10.0,25.0,75.0
-1.0,275,r,23,m,-1.0,f,90.0,60.0,25.0,movement,2.0,2,0,60.0,40.0,25.0,75.0
1213.0,278,r,23,m,70.0,f,90.0,60.0,75.0,movement,2.0,2,1,60.0,40.0,75.0,25.0
1049.0,281,r,23,m,70.0,f,90.0,60.0,100.0,movement,2.0,2,1,60.0,40.0,100.0,0.0
736.0,284,r,23,m,70.0,f,90.0,90.0,100.0,movement,2.0,2,1,90.0,10.0,100.0,0.0
1119.0,287,r,23,m,74.0,f,90.0,90.0,75.0,movement,2.0,2,0,90.0,10.0,75.0,25.0
1314.0,290,r,23,m,74.0,f,90.0,60.0,0.0,movement,2.0,2,0,60.0,40.0,0.0,100.0
1063.0,293,r,23,m,70.0,f,90.0,90.0,0.0,movement,2.0,2,1,90.0,10.0,0.0,100.0
1254.0,296,r,23,m,74.0,j,270.0,90.0,0.0,movement,2.0,2,1,10.0,90.0,100.0,0.0
1018.0,299,r,23,m,70.0,f,90.0,75.0,100.0,movement,2.0,2,1,75.0,25.0,100.0,0.0
957.0,302,r,23,m,74.0,j,270.0,90.0,100.0,movement,2.0,2,1,10.0,90.0,0.0,100.0
1089.0,305,r,23,m,70.0,f,90.0,75.0,75.0,movement,2.0,2,1,75.0,25.0,75.0,25.0
1070.0,308,r,23,m,74.0,j,270.0,90.0,25.0,movement,2.0,2,1,10.0,90.0,75.0,25.0
1043.0,311,r,23,m,70.0,f,90.0,75.0,25.0,movement,2.0,2,1,75.0,25.0,25.0,75.0
1252.0,314,r,23,m,70.0,f,90.0,75.0,0.0,movement,2.0,2,1,75.0,25.0,0.0,100.0
1245.0,317,r,23,m,74.0,j,270.0,75.0,100.0,movement,2.0,2,1,25.0,75.0,0.0,100.0
1235.0,320,r,23,m,74.0,j,270.0,75.0,75.0,movement,2.0,2,1,25.0,75.0,25.0,75.0
828.0,323,r,23,m,74.0,j,270.0,75.0,0.0,movement,2.0,2,1,25.0,75.0,100.0,0.0
790.0,326,r,23,m,74.0,j,270.0,75.0,25.0,movement,2.0,2,1,25.0,75.0,75.0,25.0
772.0,329,r,23,m,74.0,j,270.0,60.0,75.0,movement,2.0,2,1,40.0,60.0,25.0,75.0
867.0,332,r,23,m,70.0,j,270.0,60.0,100.0,movement,2.0,2,0,40.0,60.0,0.0,100.0
1318.0,335,r,23,m,74.0,j,270.0,60.0,25.0,movement,2.0,2,1,40.0,60.0,75.0,25.0
863.0,338,r,23,m,74.0,j,270.0,60.0,0.0,movement,2.0,2,1,40.0,60.0,100.0,0.0
899.0,342,r,23,m,74.0,j,270.0,75.0,0.0,movement,3.0,2,1,25.0,75.0,100.0,0.0
1143.0,345,r,23,m,74.0,j,270.0,60.0,25.0,movement,3.0,2,1,40.0,60.0,75.0,25.0
1075.0,348,r,23,m,74.0,f,90.0,60.0,25.0,movement,3.0,2,0,60.0,40.0,25.0,75.0
1031.0,351,r,23,m,74.0,j,270.0,90.0,75.0,movement,3.0,2,1,10.0,90.0,25.0,75.0
1537.0,354,r,23,m,70.0,f,90.0,60.0,75.0,movement,3.0,2,1,60.0,40.0,75.0,25.0
1083.0,357,r,23,m,74.0,j,270.0,60.0,100.0,movement,3.0,2,1,40.0,60.0,0.0,100.0
1141.0,360,r,23,m,70.0,f,90.0,90.0,25.0,movement,3.0,2,1,90.0,10.0,25.0,75.0
1093.0,363,r,23,m,74.0,j,270.0,75.0,75.0,movement,3.0,2,1,25.0,75.0,25.0,75.0
840.0,366,r,23,m,70.0,f,90.0,60.0,100.0,movement,3.0,2,1,60.0,40.0,100.0,0.0
951.0,369,r,23,m,74.0,j,270.0,75.0,100.0,movement,3.0,2,1,25.0,75.0,0.0,100.0
966.0,372,r,23,m,74.0,j,270.0,75.0,25.0,movement,3.0,2,1,25.0,75.0,75.0,25.0
992.0,375,r,23,m,70.0,j,270.0,60.0,0.0,movement,3.0,2,0,40.0,60.0,100.0,0.0
1002.0,378,r,23,m,74.0,f,90.0,90.0,100.0,movement,3.0,2,0,90.0,10.0,100.0,0.0
1058.0,381,r,23,m,74.0,j,270.0,60.0,75.0,movement,3.0,2,1,40.0,60.0,25.0,75.0
966.0,384,r,23,m,70.0,f,90.0,90.0,75.0,movement,3.0,2,1,90.0,10.0,75.0,25.0
981.0,387,r,23,m,74.0,f,90.0,60.0,0.0,movement,3.0,2,0,60.0,40.0,0.0,100.0
1357.0,390,r,23,m,70.0,f,90.0,90.0,0.0,movement,3.0,2,1,90.0,10.0,0.0,100.0
1053.0,393,r,23,m,70.0,f,90.0,75.0,100.0,movement,3.0,2,1,75.0,25.0,100.0,0.0
1133.0,396,r,23,m,74.0,j,270.0,90.0,100.0,movement,3.0,2,1,10.0,90.0,0.0,100.0
1009.0,399,r,23,m,74.0,j,270.0,90.0,0.0,movement,3.0,2,1,10.0,90.0,100.0,0.0
980.0,402,r,23,m,70.0,f,90.0,75.0,75.0,movement,3.0,2,1,75.0,25.0,75.0,25.0
1060.0,405,r,23,m,70.0,f,90.0,75.0,0.0,movement,3.0,2,1,75.0,25.0,0.0,100.0
842.0,408,r,23,m,74.0,j,270.0,90.0,25.0,movement,3.0,2,1,10.0,90.0,75.0,25.0
950.0,411,r,23,m,70.0,f,90.0,75.0,25.0,movement,3.0,2,1,75.0,25.0,25.0,75.0
957.0,415,r,23,m,74.0,j,270.0,60.0,25.0,movement,4.0,2,1,40.0,60.0,75.0,25.0
1133.0,418,r,23,m,74.0,j,270.0,75.0,0.0,movement,4.0,2,1,25.0,75.0,100.0,0.0
1233.0,421,r,23,m,70.0,f,90.0,60.0,25.0,movement,4.0,2,1,60.0,40.0,25.0,75.0
848.0,424,r,23,m,74.0,j,270.0,90.0,75.0,movement,4.0,2,1,10.0,90.0,25.0,75.0
936.0,427,r,23,m,70.0,f,90.0,90.0,25.0,movement,4.0,2,1,90.0,10.0,25.0,75.0
1140.0,430,r,23,m,74.0,f,90.0,60.0,75.0,movement,4.0,2,0,60.0,40.0,75.0,25.0
1234.0,433,r,23,m,74.0,j,270.0,60.0,100.0,movement,4.0,2,1,40.0,60.0,0.0,100.0
1077.0,436,r,23,m,74.0,j,270.0,75.0,75.0,movement,4.0,2,1,25.0,75.0,25.0,75.0
1386.0,439,r,23,m,74.0,f,90.0,60.0,0.0,movement,4.0,2,0,60.0,40.0,0.0,100.0
886.0,442,r,23,m,74.0,j,270.0,75.0,25.0,movement,4.0,2,1,25.0,75.0,75.0,25.0
921.0,445,r,23,m,70.0,f,90.0,90.0,75.0,movement,4.0,2,1,90.0,10.0,75.0,25.0
1292.0,448,r,23,m,70.0,f,90.0,60.0,100.0,movement,4.0,2,1,60.0,40.0,100.0,0.0
1186.0,451,r,23,m,70.0,j,270.0,60.0,0.0,movement,4.0,2,0,40.0,60.0,100.0,0.0
882.0,454,r,23,m,70.0,f,90.0,90.0,100.0,movement,4.0,2,1,90.0,10.0,100.0,0.0
974.0,457,r,23,m,74.0,j,270.0,60.0,75.0,movement,4.0,2,1,40.0,60.0,25.0,75.0
893.0,460,r,23,m,74.0,j,270.0,75.0,100.0,movement,4.0,2,1,25.0,75.0,0.0,100.0
1147.0,463,r,23,m,70.0,f,90.0,75.0,25.0,movement,4.0,2,1,75.0,25.0,25.0,75.0
920.0,466,r,23,m,74.0,f,90.0,75.0,100.0,movement,4.0,2,0,75.0,25.0,100.0,0.0
811.0,469,r,23,m,74.0,f,90.0,75.0,0.0,movement,4.0,2,0,75.0,25.0,0.0,100.0
1246.0,472,r,23,m,70.0,f,90.0,75.0,75.0,movement,4.0,2,1,75.0,25.0,75.0,25.0
991.0,475,r,23,m,74.0,j,270.0,90.0,25.0,movement,4.0,2,1,10.0,90.0,75.0,25.0
973.0,478,r,23,m,74.0,j,270.0,90.0,100.0,movement,4.0,2,1,10.0,90.0,0.0,100.0
987.0,481,r,23,m,74.0,j,270.0,90.0,0.0,movement,4.0,2,1,10.0,90.0,100.0,0.0
1349.0,484,r,23,m,70.0,f,90.0,90.0,0.0,movement,4.0,2,1,90.0,10.0,0.0,100.0
876.0,488,r,23,m,74.0,j,270.0,75.0,0.0,movement,5.0,2,1,25.0,75.0,100.0,0.0
1377.0,491,r,23,m,74.0,j,270.0,60.0,25.0,movement,5.0,2,1,40.0,60.0,75.0,25.0
1155.0,494,r,23,m,74.0,j,270.0,60.0,100.0,movement,5.0,2,1,40.0,60.0,0.0,100.0
1363.0,497,r,23,m,70.0,f,90.0,60.0,25.0,movement,5.0,2,1,60.0,40.0,25.0,75.0
1430.0,500,r,23,m,74.0,f,90.0,60.0,75.0,movement,5.0,2,0,60.0,40.0,75.0,25.0
1168.0,503,r,23,m,70.0,f,90.0,90.0,25.0,movement,5.0,2,1,90.0,10.0,25.0,75.0
1405.0,506,r,23,m,74.0,j,270.0,75.0,75.0,movement,5.0,2,1,25.0,75.0,25.0,75.0
1140.0,509,r,23,m,74.0,j,270.0,90.0,75.0,movement,5.0,2,1,10.0,90.0,25.0,75.0
970.0,512,r,23,m,74.0,j,270.0,75.0,25.0,movement,5.0,2,1,25.0,75.0,75.0,25.0
887.0,515,r,23,m,70.0,f,90.0,60.0,0.0,movement,5.0,2,1,60.0,40.0,0.0,100.0
1306.0,518,r,23,m,70.0,f,90.0,90.0,100.0,movement,5.0,2,1,90.0,10.0,100.0,0.0
946.0,521,r,23,m,70.0,f,90.0,90.0,75.0,movement,5.0,2,1,90.0,10.0,75.0,25.0
1235.0,524,r,23,m,74.0,j,270.0,60.0,0.0,movement,5.0,2,1,40.0,60.0,100.0,0.0
1118.0,527,r,23,m,70.0,f,90.0,60.0,100.0,movement,5.0,2,1,60.0,40.0,100.0,0.0
1107.0,530,r,23,m,74.0,j,270.0,75.0,100.0,movement,5.0,2,1,25.0,75.0,0.0,100.0
1006.0,533,r,23,m,70.0,j,270.0,60.0,75.0,movement,5.0,2,0,40.0,60.0,25.0,75.0
1230.0,536,r,23,m,70.0,f,90.0,75.0,0.0,movement,5.0,2,1,75.0,25.0,0.0,100.0
1466.0,539,r,23,m,70.0,f,90.0,75.0,100.0,movement,5.0,2,1,75.0,25.0,100.0,0.0
1109.0,542,r,23,m,70.0,f,90.0,75.0,75.0,movement,5.0,2,1,75.0,25.0,75.0,25.0
887.0,545,r,23,m,70.0,f,90.0,75.0,25.0,movement,5.0,2,1,75.0,25.0,25.0,75.0
828.0,548,r,23,m,74.0,j,270.0,90.0,25.0,movement,5.0,2,1,10.0,90.0,75.0,25.0
1104.0,551,r,23,m,74.0,j,270.0,90.0,100.0,movement,5.0,2,1,10.0,90.0,0.0,100.0
986.0,554,r,23,m,74.0,j,270.0,90.0,0.0,movement,5.0,2,1,10.0,90.0,100.0,0.0
1226.0,557,r,23,m,70.0,f,90.0,90.0,0.0,movement,5.0,2,1,90.0,10.0,0.0,100.0
-1.0,2,r,18,m,-1.0,f,90.0,100.0,100.0,movement,0.0,3,0,100.0,0.0,100.0,0.0
1013.8699999952,5,r,18,m,74.0,j,270.0,80.0,50.0,movement,0.0,3,1,20.0,80.0,50.0,50.0
1283.7500000023,8,r,18,m,70.0,f,90.0,80.0,100.0,movement,0.0,3,1,80.0,20.0,100.0,0.0
1091.225000011,11,r,18,m,70.0,f,90.0,100.0,50.0,movement,0.0,3,1,100.0,0.0,50.0,50.0
1155.0500000012,14,r,18,m,74.0,j,270.0,80.0,100.0,movement,0.0,3,1,20.0,80.0,0.0,100.0
769.18000000296,17,r,18,m,74.0,j,270.0,100.0,100.0,movement,0.0,3,1,0.0,100.0,0.0,100.0
1000.7599999954,20,r,18,m,74.0,j,270.0,100.0,50.0,movement,0.0,3,1,0.0,100.0,50.0,50.0
1660.3900000046,23,r,18,m,70.0,f,90.0,80.0,50.0,movement,0.0,3,1,80.0,20.0,50.0,50.0
951.38000001316,27,r,18,m,70.0,f,90.0,100.0,100.0,movement,0.0,3,1,100.0,0.0,100.0,0.0
979.77499998524,30,r,18,m,70.0,f,90.0,100.0,50.0,movement,0.0,3,1,100.0,0.0,50.0,50.0
704.05000000028,33,r,18,m,74.0,j,270.0,80.0,100.0,movement,0.0,3,1,20.0,80.0,0.0,100.0
975.50000000047,36,r,18,m,70.0,f,90.0,80.0,50.0,movement,0.0,3,1,80.0,20.0,50.0,50.0
939.33500000276,39,r,18,m,74.0,j,270.0,80.0,50.0,movement,0.0,3,1,20.0,80.0,50.0,50.0
966.31499999785,42,r,18,m,70.0,f,90.0,80.0,100.0,movement,0.0,3,1,80.0,20.0,100.0,0.0
745.56499999017,45,r,18,m,74.0,j,270.0,100.0,50.0,movement,0.0,3,1,0.0,100.0,50.0,50.0
668.20499999449,48,r,18,m,74.0,j,270.0,100.0,100.0,movement,0.0,3,1,0.0,100.0,0.0,100.0
1781.3800000004,52,r,18,m,70.0,j,270.0,65.0,50.0,movement,1.0,3,0,35.0,65.0,50.0,50.0
-1.0,55,r,18,m,-1.0,f,90.0,65.0,50.0,movement,1.0,3,0,65.0,35.0,50.0,50.0
1403.2249999873,58,r,18,m,74.0,f,90.0,65.0,50.0,movement,1.0,3,0,65.0,35.0,50.0,50.0
1083.8649999932,61,r,18,m,70.0,f,90.0,65.0,50.0,movement,1.0,3,1,65.0,35.0,50.0,50.0
1219.5650000067,64,r,18,m,74.0,j,270.0,65.0,50.0,movement,1.0,3,1,35.0,65.0,50.0,50.0
1475.5000000005,67,r,18,m,74.0,j,270.0,30.0,23.076923076923077,movement,1.0,3,1,70.0,30.0,23.076923076923077,23.076923076923077
923.00000000978,70,r,18,m,74.0,f,90.0,65.0,50.0,movement,1.0,3,0,65.0,35.0,50.0,50.0
1456.274999975,73,r,18,m,70.0,f,90.0,65.0,50.0,movement,1.0,3,1,65.0,35.0,50.0,50.0
1408.3099999989,76,r,18,m,70.0,f,90.0,65.0,50.0,movement,1.0,3,1,65.0,35.0,50.0,50.0
1122.165000008,79,r,18,m,74.0,f,90.0,65.0,50.0,movement,1.0,3,0,65.0,35.0,50.0,50.0
903.41500000795,82,r,18,m,70.0,j,270.0,65.0,50.0,movement,1.0,3,0,35.0,65.0,50.0,50.0
1571.5700000001,85,r,18,m,70.0,j,270.0,65.0,50.0,movement,1.0,3,0,35.0,65.0,50.0,50.0
898.53500001482,88,r,18,m,74.0,j,270.0,65.0,50.0,movement,1.0,3,1,35.0,65.0,50.0,50.0
1351.4750000031,91,r,18,m,70.0,j,270.0,30.0,23.076923076923077,movement,1.0,3,0,70.0,30.0,23.076923076923077,23.076923076923077
1125.5599999859,94,r,18,m,70.0,j,270.0,30.0,23.076923076923077,movement,1.0,3,0,70.0,30.0,23.076923076923077,23.076923076923077
1520.7300000184,97,r,18,m,74.0,j,270.0,30.0,23.076923076923077,movement,1.0,3,1,70.0,30.0,23.076923076923077,23.076923076923077
1228.8800000097,100,r,18,m,74.0,f,90.0,30.0,23.076923076923077,movement,1.0,3,0,30.0,70.0,23.076923076923077,23.076923076923077
969.24999999464,103,r,18,m,70.0,f,90.0,65.0,50.0,movement,1.0,3,1,65.0,35.0,50.0,50.0
1085.9999999811,106,r,18,m,74.0,j,270.0,65.0,50.0,movement,1.0,3,1,35.0,65.0,50.0,50.0
1083.9300000225,109,r,18,m,70.0,j,270.0,65.0,50.0,movement,1.0,3,0,35.0,65.0,50.0,50.0
1294.8900000192,112,r,18,m,70.0,j,270.0,65.0,50.0,movement,1.0,3,0,35.0,65.0,50.0,50.0
1241.7350000178,115,r,18,m,74.0,j,270.0,65.0,50.0,movement,1.0,3,1,35.0,65.0,50.0,50.0
1416.7599999928,118,r,18,m,74.0,j,270.0,65.0,50.0,movement,1.0,3,1,35.0,65.0,50.0,50.0
1024.4200000016,121,r,18,m,74.0,f,90.0,65.0,50.0,movement,1.0,3,0,65.0,35.0,50.0,50.0
1536.0050000018,124,r,18,m,70.0,f,90.0,30.0,23.076923076923077,movement,1.0,3,1,30.0,70.0,23.076923076923077,23.076923076923077
1557.2500000126,127,r,18,m,74.0,f,90.0,65.0,50.0,movement,1.0,3,0,65.0,35.0,50.0,50.0
723.64000001107,130,r,18,m,70.0,j,270.0,65.0,50.0,movement,1.0,3,0,35.0,65.0,50.0,50.0
820.3050000011,133,r,18,m,74.0,j,270.0,65.0,50.0,movement,1.0,3,1,35.0,65.0,50.0,50.0
1673.6249999958,136,r,18,m,70.0,f,90.0,65.0,50.0,movement,1.0,3,1,65.0,35.0,50.0,50.0
1130.9400000027,139,r,18,m,74.0,j,270.0,65.0,50.0,movement,1.0,3,1,35.0,65.0,50.0,50.0
1405.6049999781,142,r,18,m,70.0,f,90.0,65.0,50.0,movement,1.0,3,1,65.0,35.0,50.0,50.0
1547.4099999992,145,r,18,m,70.0,j,270.0,65.0,50.0,movement,1.0,3,0,35.0,65.0,50.0,50.0
1539.3449999974,148,r,18,m,74.0,f,90.0,65.0,50.0,movement,1.0,3,0,65.0,35.0,50.0,50.0
1445.1649999828,151,r,18,m,70.0,f,90.0,65.0,50.0,movement,1.0,3,1,65.0,35.0,50.0,50.0
1066.1100000143,154,r,18,m,74.0,f,90.0,30.0,23.076923076923077,movement,1.0,3,0,30.0,70.0,23.076923076923077,23.076923076923077
1434.4399999827,157,r,18,m,74.0,j,270.0,65.0,50.0,movement,1.0,3,1,35.0,65.0,50.0,50.0
1399.4550000061,160,r,18,m,70.0,j,270.0,65.0,50.0,movement,1.0,3,0,35.0,65.0,50.0,50.0
978.68000000017,163,r,18,m,70.0,f,90.0,65.0,50.0,movement,1.0,3,1,65.0,35.0,50.0,50.0
1984.6200000029,166,r,18,m,74.0,j,270.0,65.0,50.0,movement,1.0,3,1,35.0,65.0,50.0,50.0
-1.0,169,r,18,m,-1.0,f,90.0,65.0,50.0,movement,1.0,3,0,65.0,35.0,50.0,50.0
918.43499999959,172,r,18,m,74.0,j,270.0,65.0,50.0,movement,1.0,3,1,35.0,65.0,50.0,50.0
893.50000000559,175,r,18,m,70.0,f,90.0,65.0,50.0,movement,1.0,3,1,65.0,35.0,50.0,50.0
343.82000000915,178,r,18,m,74.0,f,90.0,65.0,50.0,movement,1.0,3,0,65.0,35.0,50.0,50.0
-1.0,181,r,18,m,-1.0,f,90.0,65.0,50.0,movement,1.0,3,0,65.0,35.0,50.0,50.0
1135.1499999873,184,r,18,m,70.0,f,90.0,65.0,50.0,movement,1.0,3,1,65.0,35.0,50.0,50.0
1338.139999978,187,r,18,m,74.0,f,90.0,65.0,50.0,movement,1.0,3,0,65.0,35.0,50.0,50.0
1037.0699999912,190,r,18,m,70.0,f,90.0,30.0,23.076923076923077,movement,1.0,3,1,30.0,70.0,23.076923076923077,23.076923076923077
1394.3600000057,193,r,18,m,70.0,j,270.0,30.0,23.076923076923077,movement,1.0,3,0,70.0,30.0,23.076923076923077,23.076923076923077
892.28000000003,196,r,18,m,74.0,j,270.0,65.0,50.0,movement,1.0,3,1,35.0,65.0,50.0,50.0
1188.3849999867,199,r,18,m,70.0,f,90.0,65.0,50.0,movement,1.0,3,1,65.0,35.0,50.0,50.0
1404.3250000104,202,r,18,m,74.0,j,270.0,65.0,50.0,movement,1.0,3,1,35.0,65.0,50.0,50.0
1327.6450000121,205,r,18,m,74.0,j,270.0,65.0,50.0,movement,1.0,3,1,35.0,65.0,50.0,50.0
990.00999997952,208,r,18,m,74.0,j,270.0,30.0,23.076923076923077,movement,1.0,3,1,70.0,30.0,23.076923076923077,23.076923076923077
1441.1099999852,211,r,18,m,74.0,j,270.0,65.0,50.0,movement,1.0,3,1,35.0,65.0,50.0,50.0
1342.8150000109,214,r,18,m,70.0,f,90.0,65.0,50.0,movement,1.0,3,1,65.0,35.0,50.0,50.0
1012.6800000144,217,r,18,m,74.0,j,270.0,30.0,23.076923076923077,movement,1.0,3,1,70.0,30.0,23.076923076923077,23.076923076923077
1306.8849999981,220,r,18,m,70.0,f,90.0,65.0,50.0,movement,1.0,3,1,65.0,35.0,50.0,50.0
1294.0550000058,223,r,18,m,74.0,j,270.0,65.0,50.0,movement,1.0,3,1,35.0,65.0,50.0,50.0
1386.204999988,226,r,18,m,74.0,j,270.0,65.0,50.0,movement,1.0,3,1,35.0,65.0,50.0,50.0
1426.7500000133,229,r,18,m,70.0,f,90.0,65.0,50.0,movement,1.0,3,1,65.0,35.0,50.0,50.0
1734.3149999797,232,r,18,m,74.0,f,90.0,65.0,50.0,movement,1.0,3,0,65.0,35.0,50.0,50.0
1938.0899999815,235,r,18,m,74.0,j,270.0,65.0,50.0,movement,1.0,3,1,35.0,65.0,50.0,50.0
1580.6100000045,238,r,18,m,74.0,j,270.0,65.0,50.0,movement,1.0,3,1,35.0,65.0,50.0,50.0
627.89500001236,241,r,18,m,70.0,f,90.0,65.0,50.0,movement,1.0,3,1,65.0,35.0,50.0,50.0
1677.4950000108,244,r,18,m,74.0,f,90.0,65.0,50.0,movement,1.0,3,0,65.0,35.0,50.0,50.0
837.76000002399,247,r,18,m,70.0,f,90.0,65.0,50.0,movement,1.0,3,1,65.0,35.0,50.0,50.0
1821.110000019,250,r,18,m,74.0,f,90.0,65.0,50.0,movement,1.0,3,0,65.0,35.0,50.0,50.0
1292.0400000003,253,r,18,m,74.0,j,270.0,65.0,50.0,movement,1.0,3,1,35.0,65.0,50.0,50.0
1575.8550000028,256,r,18,m,74.0,j,270.0,65.0,50.0,movement,1.0,3,1,35.0,65.0,50.0,50.0
1459.3699999969,259,r,18,m,70.0,j,270.0,65.0,50.0,movement,1.0,3,0,35.0,65.0,50.0,50.0
1462.6099999878,262,r,18,m,74.0,f,90.0,30.0,23.076923076923077,movement,1.0,3,0,30.0,70.0,23.076923076923077,23.076923076923077
1353.6900000181,265,r,18,m,70.0,f,90.0,65.0,50.0,movement,1.0,3,1,65.0,35.0,50.0,50.0
1293.9349999942,269,r,18,m,70.0,f,90.0,60.0,100.0,movement,2.0,3,1,60.0,40.0,100.0,0.0
1671.0200000089,272,r,18,m,70.0,f,90.0,75.0,75.0,movement,2.0,3,1,75.0,25.0,75.0,25.0
1259.7200000018,275,r,18,m,74.0,j,270.0,90.0,0.0,movement,2.0,3,1,10.0,90.0,100.0,0.0
923.10499999439,278,r,18,m,70.0,j,270.0,60.0,0.0,movement,2.0,3,0,40.0,60.0,100.0,0.0
1512.7099999809,281,r,18,m,70.0,f,90.0,75.0,0.0,movement,2.0,3,1,75.0,25.0,0.0,100.0
913.15000000759,284,r,18,m,70.0,f,90.0,75.0,100.0,movement,2.0,3,1,75.0,25.0,100.0,0.0
1108.264999988,287,r,18,m,74.0,j,270.0,90.0,100.0,movement,2.0,3,1,10.0,90.0,0.0,100.0
866.93000001833,290,r,18,m,70.0,f,90.0,90.0,75.0,movement,2.0,3,1,90.0,10.0,75.0,25.0
707.93500001309,293,r,18,m,74.0,f,90.0,60.0,0.0,movement,2.0,3,0,60.0,40.0,0.0,100.0
902.19999998226,296,r,18,m,74.0,j,270.0,75.0,25.0,movement,2.0,3,1,25.0,75.0,75.0,25.0
802.5900000066,299,r,18,m,74.0,j,270.0,90.0,75.0,movement,2.0,3,1,10.0,90.0,25.0,75.0
764.48500002152,302,r,18,m,70.0,f,90.0,90.0,0.0,movement,2.0,3,1,90.0,10.0,0.0,100.0
1835.5600000068,305,r,18,m,70.0,f,90.0,60.0,75.0,movement,2.0,3,1,60.0,40.0,75.0,25.0
1339.7000000114,308,r,18,m,70.0,f,90.0,90.0,25.0,movement,2.0,3,1,90.0,10.0,25.0,75.0
1900.5299999844,311,r,18,m,74.0,j,270.0,60.0,75.0,movement,2.0,3,1,40.0,60.0,25.0,75.0
1025.1350000035,314,r,18,m,74.0,j,270.0,60.0,25.0,movement,2.0,3,1,40.0,60.0,75.0,25.0
1709.2549999943,317,r,18,m,74.0,j,270.0,90.0,25.0,movement,2.0,3,1,10.0,90.0,75.0,25.0
1736.0099999933,320,r,18,m,70.0,j,270.0,75.0,75.0,movement,2.0,3,0,25.0,75.0,25.0,75.0
1667.7449999843,323,r,18,m,74.0,j,270.0,75.0,0.0,movement,2.0,3,1,25.0,75.0,100.0,0.0
1162.3949999921,326,r,18,m,74.0,j,270.0,60.0,100.0,movement,2.0,3,1,40.0,60.0,0.0,100.0
874.69500000589,329,r,18,m,70.0,f,90.0,90.0,100.0,movement,2.0,3,1,90.0,10.0,100.0,0.0
1173.8349999941,332,r,18,m,74.0,j,270.0,75.0,100.0,movement,2.0,3,1,25.0,75.0,0.0,100.0
1269.3150000123,335,r,18,m,70.0,f,90.0,60.0,25.0,movement,2.0,3,1,60.0,40.0,25.0,75.0
1144.7800000024,338,r,18,m,70.0,f,90.0,75.0,25.0,movement,2.0,3,1,75.0,25.0,25.0,75.0
-1.0,342,r,18,m,-1.0,j,270.0,75.0,75.0,movement,3.0,3,0,25.0,75.0,25.0,75.0
872.52499998431,345,r,18,m,74.0,j,270.0,60.0,0.0,movement,3.0,3,1,40.0,60.0,100.0,0.0
755.18000000739,348,r,18,m,74.0,j,270.0,90.0,100.0,movement,3.0,3,1,10.0,90.0,0.0,100.0
626.45500001963,351,r,18,m,70.0,j,270.0,90.0,25.0,movement,3.0,3,0,10.0,90.0,75.0,25.0
1716.9150000263,354,r,18,m,70.0,j,270.0,60.0,100.0,movement,3.0,3,0,40.0,60.0,0.0,100.0
820.9799999895,357,r,18,m,70.0,f,90.0,90.0,75.0,movement,3.0,3,1,90.0,10.0,75.0,25.0
1783.6050000042,360,r,18,m,70.0,f,90.0,75.0,75.0,movement,3.0,3,1,75.0,25.0,75.0,25.0
1495.0400000089,363,r,18,m,70.0,f,90.0,75.0,25.0,movement,3.0,3,1,75.0,25.0,25.0,75.0
2014.4800000126,366,r,18,m,70.0,j,270.0,60.0,75.0,movement,3.0,3,0,40.0,60.0,25.0,75.0
1072.6549999963,369,r,18,m,74.0,f,90.0,60.0,25.0,movement,3.0,3,0,60.0,40.0,25.0,75.0
-1.0,372,r,18,m,-1.0,f,90.0,60.0,100.0,movement,3.0,3,0,60.0,40.0,100.0,0.0
1634.2600000207,375,r,18,m,74.0,j,270.0,60.0,25.0,movement,3.0,3,1,40.0,60.0,75.0,25.0
805.37500002538,378,r,18,m,74.0,j,270.0,75.0,100.0,movement,3.0,3,1,25.0,75.0,0.0,100.0
1511.1899999902,381,r,18,m,74.0,f,90.0,60.0,0.0,movement,3.0,3,0,60.0,40.0,0.0,100.0
1493.3300000266,384,r,18,m,70.0,f,90.0,90.0,25.0,movement,3.0,3,1,90.0,10.0,25.0,75.0
1606.2199999869,387,r,18,m,74.0,j,270.0,90.0,0.0,movement,3.0,3,1,10.0,90.0,100.0,0.0
1174.5499999961,390,r,18,m,70.0,f,90.0,90.0,0.0,movement,3.0,3,1,90.0,10.0,0.0,100.0
1221.5599999763,393,r,18,m,70.0,f,90.0,75.0,0.0,movement,3.0,3,1,75.0,25.0,0.0,100.0
841.90500000841,396,r,18,m,70.0,f,90.0,60.0,75.0,movement,3.0,3,1,60.0,40.0,75.0,25.0
990.7200000016,399,r,18,m,74.0,j,270.0,75.0,0.0,movement,3.0,3,1,25.0,75.0,100.0,0.0
884.92000001133,402,r,18,m,70.0,f,90.0,75.0,100.0,movement,3.0,3,1,75.0,25.0,100.0,0.0
1355.7300000102,405,r,18,m,70.0,f,90.0,90.0,100.0,movement,3.0,3,1,90.0,10.0,100.0,0.0
1242.5349999976,408,r,18,m,74.0,j,270.0,75.0,25.0,movement,3.0,3,1,25.0,75.0,75.0,25.0
1609.3350000156,411,r,18,m,74.0,j,270.0,90.0,75.0,movement,3.0,3,1,10.0,90.0,25.0,75.0
1462.8150000062,415,r,18,m,70.0,f,90.0,90.0,75.0,movement,4.0,3,1,90.0,10.0,75.0,25.0
879.89000001107,418,r,18,m,74.0,j,270.0,75.0,100.0,movement,4.0,3,1,25.0,75.0,0.0,100.0
730.42999999598,421,r,18,m,70.0,f,90.0,75.0,75.0,movement,4.0,3,1,75.0,25.0,75.0,25.0
1322.8200000012,424,r,18,m,70.0,f,90.0,90.0,100.0,movement,4.0,3,1,90.0,10.0,100.0,0.0
1078.5299999989,427,r,18,m,70.0,j,270.0,75.0,0.0,movement,4.0,3,0,25.0,75.0,100.0,0.0
650.63499999815,430,r,18,m,70.0,j,270.0,60.0,25.0,movement,4.0,3,0,40.0,60.0,75.0,25.0
797.15500000748,433,r,18,m,74.0,f,90.0,75.0,100.0,movement,4.0,3,0,75.0,25.0,100.0,0.0
642.96500000637,436,r,18,m,70.0,j,270.0,90.0,25.0,movement,4.0,3,0,10.0,90.0,75.0,25.0
1431.4550000126,439,r,18,m,74.0,j,270.0,90.0,75.0,movement,4.0,3,1,10.0,90.0,25.0,75.0
1417.8599999868,442,r,18,m,70.0,f,90.0,60.0,0.0,movement,4.0,3,1,60.0,40.0,0.0,100.0
1152.0850000088,445,r,18,m,70.0,f,90.0,75.0,25.0,movement,4.0,3,1,75.0,25.0,25.0,75.0
1483.0500000098,448,r,18,m,70.0,j,270.0,90.0,100.0,movement,4.0,3,0,10.0,90.0,0.0,100.0
1149.304999999,451,r,18,m,70.0,j,270.0,60.0,0.0,movement,4.0,3,0,40.0,60.0,100.0,0.0
1519.1399999894,454,r,18,m,70.0,f,90.0,60.0,75.0,movement,4.0,3,1,60.0,40.0,75.0,25.0
1668.8300000096,457,r,18,m,74.0,j,270.0,75.0,75.0,movement,4.0,3,1,25.0,75.0,25.0,75.0
1833.0000000133,460,r,18,m,70.0,f,90.0,90.0,25.0,movement,4.0,3,1,90.0,10.0,25.0,75.0
1760.9050000028,463,r,18,m,70.0,f,90.0,75.0,0.0,movement,4.0,3,1,75.0,25.0,0.0,100.0
1346.3350000093,466,r,18,m,70.0,f,90.0,90.0,0.0,movement,4.0,3,1,90.0,10.0,0.0,100.0
1099.9099999899,469,r,18,m,70.0,j,270.0,60.0,75.0,movement,4.0,3,0,40.0,60.0,25.0,75.0
-1.0,472,r,18,m,-1.0,j,270.0,60.0,100.0,movement,4.0,3,0,40.0,60.0,0.0,100.0
1046.0399999865,475,r,18,m,70.0,f,90.0,60.0,100.0,movement,4.0,3,1,60.0,40.0,100.0,0.0
1692.5950000004,478,r,18,m,74.0,j,270.0,90.0,0.0,movement,4.0,3,1,10.0,90.0,100.0,0.0
883.6650000012,481,r,18,m,70.0,f,90.0,60.0,25.0,movement,4.0,3,1,60.0,40.0,25.0,75.0
1187.7549999917,484,r,18,m,74.0,j,270.0,75.0,25.0,movement,4.0,3,1,25.0,75.0,75.0,25.0
1000.3350000188,488,r,18,m,70.0,f,90.0,90.0,25.0,movement,5.0,3,1,90.0,10.0,25.0,75.0
1173.53,491,r,18,m,74.0,j,270.0,60.0,25.0,movement,5.0,3,1,40.0,60.0,75.0,25.0
1269.6700000088,494,r,18,m,70.0,j,270.0,75.0,100.0,movement,5.0,3,0,25.0,75.0,0.0,100.0
1237.8899999894,497,r,18,m,74.0,j,270.0,60.0,75.0,movement,5.0,3,1,40.0,60.0,25.0,75.0
967.20000001369,500,r,18,m,70.0,f,90.0,60.0,100.0,movement,5.0,3,1,60.0,40.0,100.0,0.0
948.55000000098,503,r,18,m,70.0,j,270.0,60.0,0.0,movement,5.0,3,0,40.0,60.0,100.0,0.0
1442.790000001,506,r,18,m,74.0,j,270.0,90.0,0.0,movement,5.0,3,1,10.0,90.0,100.0,0.0
1691.5849999932,509,r,18,m,70.0,f,90.0,60.0,0.0,movement,5.0,3,1,60.0,40.0,0.0,100.0
-1.0,512,r,18,m,-1.0,f,90.0,60.0,25.0,movement,5.0,3,0,60.0,40.0,25.0,75.0
1446.1500000034,515,r,18,m,70.0,f,90.0,75.0,0.0,movement,5.0,3,1,75.0,25.0,0.0,100.0
1162.954999978,518,r,18,m,70.0,f,90.0,90.0,75.0,movement,5.0,3,1,90.0,10.0,75.0,25.0
907.0800000045,521,r,18,m,74.0,j,270.0,90.0,100.0,movement,5.0,3,1,10.0,90.0,0.0,100.0
-1.0,524,r,18,m,-1.0,f,90.0,90.0,100.0,movement,5.0,3,0,90.0,10.0,100.0,0.0
752.68000000506,527,r,18,m,70.0,f,90.0,60.0,75.0,movement,5.0,3,1,60.0,40.0,75.0,25.0
940.97500000498,530,r,18,m,74.0,f,90.0,75.0,75.0,movement,5.0,3,0,75.0,25.0,75.0,25.0
654.61999998661,533,r,18,m,74.0,j,270.0,90.0,75.0,movement,5.0,3,1,10.0,90.0,25.0,75.0
1021.3199999998,536,r,18,m,70.0,j,270.0,60.0,100.0,movement,5.0,3,0,40.0,60.0,0.0,100.0
599.4650000066,539,r,18,m,74.0,j,270.0,75.0,75.0,movement,5.0,3,1,25.0,75.0,25.0,75.0
654.46499999962,542,r,18,m,70.0,j,270.0,75.0,25.0,movement,5.0,3,0,25.0,75.0,75.0,25.0
655.95000001485,545,r,18,m,74.0,j,270.0,90.0,25.0,movement,5.0,3,1,10.0,90.0,75.0,25.0
1400.5449999822,548,r,18,m,74.0,j,270.0,75.0,0.0,movement,5.0,3,1,25.0,75.0,100.0,0.0
1434.2799999868,551,r,18,m,74.0,f,90.0,90.0,0.0,movement,5.0,3,0,90.0,10.0,0.0,100.0
315.85500002257,554,r,18,m,70.0,f,90.0,75.0,100.0,movement,5.0,3,1,75.0,25.0,100.0,0.0
1121.7500000203,557,r,18,m,70.0,f,90.0,75.0,25.0,movement,5.0,3,1,75.0,25.0,25.0,75.0
1538.9549999963,2,r,32,m,74.0,j,270.0,100.0,50.0,movement,0.0,4,1,0.0,100.0,50.0,50.0
1954.8550000181,5,r,32,m,70.0,j,270.0,80.0,100.0,movement,0.0,4,0,20.0,80.0,0.0,100.0
1218.6300000176,8,r,32,m,74.0,j,270.0,80.0,50.0,movement,0.0,4,1,20.0,80.0,50.0,50.0
1829.2349999538,11,r,32,m,74.0,f,90.0,80.0,100.0,movement,0.0,4,0,80.0,20.0,100.0,0.0
1729.2649999727,14,r,32,m,70.0,f,90.0,80.0,50.0,movement,0.0,4,1,80.0,20.0,50.0,50.0
977.96499996912,17,r,32,m,70.0,f,90.0,100.0,100.0,movement,0.0,4,1,100.0,0.0,100.0,0.0
940.81499997992,20,r,32,m,70.0,f,90.0,100.0,50.0,movement,0.0,4,1,100.0,0.0,50.0,50.0
831.28500008024,23,r,32,m,74.0,j,270.0,100.0,100.0,movement,0.0,4,1,0.0,100.0,0.0,100.0
824.86500008963,27,r,32,m,74.0,j,270.0,100.0,50.0,movement,0.0,4,1,0.0,100.0,50.0,50.0
741.64000002202,30,r,32,m,70.0,f,90.0,80.0,100.0,movement,0.0,4,1,80.0,20.0,100.0,0.0
770.35999996588,33,r,32,m,70.0,f,90.0,100.0,50.0,movement,0.0,4,1,100.0,0.0,50.0,50.0
555.57000008412,36,r,32,m,74.0,j,270.0,100.0,100.0,movement,0.0,4,1,0.0,100.0,0.0,100.0
559.7350000171,39,r,32,m,70.0,f,90.0,100.0,100.0,movement,0.0,4,1,100.0,0.0,100.0,0.0
533.51999993902,42,r,32,m,74.0,j,270.0,80.0,50.0,movement,0.0,4,1,20.0,80.0,50.0,50.0
640.6549999956,45,r,32,m,74.0,j,270.0,80.0,100.0,movement,0.0,4,1,20.0,80.0,0.0,100.0
729.65500003193,48,r,32,m,74.0,f,90.0,80.0,50.0,movement,0.0,4,0,80.0,20.0,50.0,50.0
782.81500004232,52,r,32,m,74.0,j,270.0,30.0,23.076923076923077,movement,1.0,4,1,70.0,30.0,23.076923076923077,23.076923076923077
1317.2049999703,55,r,32,m,70.0,f,90.0,30.0,23.076923076923077,movement,1.0,4,1,30.0,70.0,23.076923076923077,23.076923076923077
873.75000002794,58,r,32,m,74.0,f,90.0,30.0,23.076923076923077,movement,1.0,4,0,30.0,70.0,23.076923076923077,23.076923076923077
722.9150000494,61,r,32,m,74.0,f,90.0,30.0,23.076923076923077,movement,1.0,4,0,30.0,70.0,23.076923076923077,23.076923076923077
1016.5799999377,64,r,32,m,70.0,f,90.0,65.0,50.0,movement,1.0,4,1,65.0,35.0,50.0,50.0
789.87500001676,67,r,32,m,74.0,j,270.0,65.0,50.0,movement,1.0,4,1,35.0,65.0,50.0,50.0
833.2549999468,70,r,32,m,74.0,j,270.0,65.0,50.0,movement,1.0,4,1,35.0,65.0,50.0,50.0
818.38499999139,73,r,32,m,74.0,j,270.0,65.0,50.0,movement,1.0,4,1,35.0,65.0,50.0,50.0
697.9800000554,76,r,32,m,74.0,j,270.0,65.0,50.0,movement,1.0,4,1,35.0,65.0,50.0,50.0
681.97999999393,79,r,32,m,74.0,j,270.0,65.0,50.0,movement,1.0,4,1,35.0,65.0,50.0,50.0
955.45000000857,82,r,32,m,74.0,f,90.0,30.0,23.076923076923077,movement,1.0,4,0,30.0,70.0,23.076923076923077,23.076923076923077
827.9249999905,85,r,32,m,74.0,j,270.0,65.0,50.0,movement,1.0,4,1,35.0,65.0,50.0,50.0
1103.8199999603,88,r,32,m,74.0,j,270.0,65.0,50.0,movement,1.0,4,1,35.0,65.0,50.0,50.0
794.96000008658,91,r,32,m,70.0,j,270.0,65.0,50.0,movement,1.0,4,0,35.0,65.0,50.0,50.0
644.91499995347,94,r,32,m,74.0,j,270.0,65.0,50.0,movement,1.0,4,1,35.0,65.0,50.0,50.0
1131.5500000492,97,r,32,m,70.0,j,270.0,65.0,50.0,movement,1.0,4,0,35.0,65.0,50.0,50.0
1229.8350000056,100,r,32,m,70.0,f,90.0,30.0,23.076923076923077,movement,1.0,4,1,30.0,70.0,23.076923076923077,23.076923076923077
1517.0650000218,103,r,32,m,70.0,f,90.0,65.0,50.0,movement,1.0,4,1,65.0,35.0,50.0,50.0
778.3150000032,106,r,32,m,74.0,j,270.0,65.0,50.0,movement,1.0,4,1,35.0,65.0,50.0,50.0
1119.3900000071,109,r,32,m,74.0,j,270.0,65.0,50.0,movement,1.0,4,1,35.0,65.0,50.0,50.0
1061.3600000506,112,r,32,m,74.0,j,270.0,65.0,50.0,movement,1.0,4,1,35.0,65.0,50.0,50.0
1209.0350000653,115,r,32,m,74.0,j,270.0,65.0,50.0,movement,1.0,4,1,35.0,65.0,50.0,50.0
1275.629999931,118,r,32,m,74.0,j,270.0,65.0,50.0,movement,1.0,4,1,35.0,65.0,50.0,50.0
1158.1050000386,121,r,32,m,74.0,f,90.0,65.0,50.0,movement,1.0,4,0,65.0,35.0,50.0,50.0
837.69499999471,124,r,32,m,74.0,f,90.0,65.0,50.0,movement,1.0,4,0,65.0,35.0,50.0,50.0
1077.1200000308,127,r,32,m,70.0,f,90.0,65.0,50.0,movement,1.0,4,1,65.0,35.0,50.0,50.0
1175.8050000062,130,r,32,m,74.0,j,270.0,65.0,50.0,movement,1.0,4,1,35.0,65.0,50.0,50.0
1199.8000000603,133,r,32,m,74.0,f,90.0,65.0,50.0,movement,1.0,4,0,65.0,35.0,50.0,50.0
1401.3099999866,136,r,32,m,74.0,f,90.0,65.0,50.0,movement,1.0,4,0,65.0,35.0,50.0,50.0
1275.9350000415,139,r,32,m,74.0,f,90.0,65.0,50.0,movement,1.0,4,0,65.0,35.0,50.0,50.0
1379.7949999571,142,r,32,m,74.0,j,270.0,65.0,50.0,movement,1.0,4,1,35.0,65.0,50.0,50.0
1841.1499999929,145,r,32,m,74.0,f,90.0,30.0,23.076923076923077,movement,1.0,4,0,30.0,70.0,23.076923076923077,23.076923076923077
1703.3350000856,148,r,32,m,74.0,j,270.0,65.0,50.0,movement,1.0,4,1,35.0,65.0,50.0,50.0
2024.6449999977,151,r,32,m,74.0,j,270.0,65.0,50.0,movement,1.0,4,1,35.0,65.0,50.0,50.0
-1.0,154,r,32,m,-1.0,f,90.0,65.0,50.0,movement,1.0,4,0,65.0,35.0,50.0,50.0
1464.8449999513,157,r,32,m,70.0,f,90.0,65.0,50.0,movement,1.0,4,1,65.0,35.0,50.0,50.0
1470.1500000665,160,r,32,m,70.0,f,90.0,65.0,50.0,movement,1.0,4,1,65.0,35.0,50.0,50.0
1574.5599999791,163,r,32,m,70.0,f,90.0,65.0,50.0,movement,1.0,4,1,65.0,35.0,50.0,50.0
1561.2599999877,166,r,32,m,74.0,j,270.0,65.0,50.0,movement,1.0,4,1,35.0,65.0,50.0,50.0
1481.1400000472,169,r,32,m,70.0,f,90.0,30.0,23.076923076923077,movement,1.0,4,1,30.0,70.0,23.076923076923077,23.076923076923077
1782.6600000262,172,r,32,m,74.0,j,270.0,30.0,23.076923076923077,movement,1.0,4,1,70.0,30.0,23.076923076923077,23.076923076923077
1434.2450000113,175,r,32,m,70.0,j,270.0,65.0,50.0,movement,1.0,4,0,35.0,65.0,50.0,50.0
1324.9649999198,178,r,32,m,74.0,j,270.0,65.0,50.0,movement,1.0,4,1,35.0,65.0,50.0,50.0
1326.4450000133,181,r,32,m,70.0,f,90.0,65.0,50.0,movement,1.0,4,1,65.0,35.0,50.0,50.0
1418.4200000018,184,r,32,m,74.0,j,270.0,65.0,50.0,movement,1.0,4,1,35.0,65.0,50.0,50.0
1544.8649999453,187,r,32,m,74.0,f,90.0,30.0,23.076923076923077,movement,1.0,4,0,30.0,70.0,23.076923076923077,23.076923076923077
1191.5549999103,190,r,32,m,70.0,f,90.0,65.0,50.0,movement,1.0,4,1,65.0,35.0,50.0,50.0
1262.8450000193,193,r,32,m,70.0,j,270.0,65.0,50.0,movement,1.0,4,0,35.0,65.0,50.0,50.0
1230.6300000055,196,r,32,m,70.0,f,90.0,65.0,50.0,movement,1.0,4,1,65.0,35.0,50.0,50.0
1234.8900000798,199,r,32,m,70.0,f,90.0,65.0,50.0,movement,1.0,4,1,65.0,35.0,50.0,50.0
911.01000003982,202,r,32,m,74.0,j,270.0,65.0,50.0,movement,1.0,4,1,35.0,65.0,50.0,50.0
1100.6449999986,205,r,32,m,70.0,f,90.0,30.0,23.076923076923077,movement,1.0,4,1,30.0,70.0,23.076923076923077,23.076923076923077
1001.5049999347,208,r,32,m,70.0,f,90.0,65.0,50.0,movement,1.0,4,1,65.0,35.0,50.0,50.0
1147.3499999847,211,r,32,m,70.0,f,90.0,65.0,50.0,movement,1.0,4,1,65.0,35.0,50.0,50.0
1028.5299998941,214,r,32,m,70.0,f,90.0,65.0,50.0,movement,1.0,4,1,65.0,35.0,50.0,50.0
1130.414999905,217,r,32,m,70.0,f,90.0,65.0,50.0,movement,1.0,4,1,65.0,35.0,50.0,50.0
882.0199999027,220,r,32,m,74.0,j,270.0,65.0,50.0,movement,1.0,4,1,35.0,65.0,50.0,50.0
749.72500000149,223,r,32,m,74.0,j,270.0,65.0,50.0,movement,1.0,4,1,35.0,65.0,50.0,50.0
817.94999993872,226,r,32,m,70.0,f,90.0,65.0,50.0,movement,1.0,4,1,65.0,35.0,50.0,50.0
1020.439999993,229,r,32,m,74.0,j,270.0,65.0,50.0,movement,1.0,4,1,35.0,65.0,50.0,50.0
980.80500005744,232,r,32,m,70.0,f,90.0,65.0,50.0,movement,1.0,4,1,65.0,35.0,50.0,50.0
986.15499993321,235,r,32,m,74.0,j,270.0,65.0,50.0,movement,1.0,4,1,35.0,65.0,50.0,50.0
1438.6400000658,238,r,32,m,70.0,j,270.0,65.0,50.0,movement,1.0,4,0,35.0,65.0,50.0,50.0
721.69500007294,241,r,32,m,74.0,j,270.0,65.0,50.0,movement,1.0,4,1,35.0,65.0,50.0,50.0
881.10999995843,244,r,32,m,70.0,f,90.0,65.0,50.0,movement,1.0,4,1,65.0,35.0,50.0,50.0
1025.1149999676,247,r,32,m,74.0,j,270.0,65.0,50.0,movement,1.0,4,1,35.0,65.0,50.0,50.0
833.71499995701,250,r,32,m,70.0,f,90.0,65.0,50.0,movement,1.0,4,1,65.0,35.0,50.0,50.0
922.06999997143,253,r,32,m,74.0,j,270.0,65.0,50.0,movement,1.0,4,1,35.0,65.0,50.0,50.0
833.53499998339,256,r,32,m,70.0,j,270.0,30.0,23.076923076923077,movement,1.0,4,0,70.0,30.0,23.076923076923077,23.076923076923077
1088.0250000628,259,r,32,m,74.0,f,90.0,65.0,50.0,movement,1.0,4,0,65.0,35.0,50.0,50.0
848.39500009548,262,r,32,m,74.0,f,90.0,65.0,50.0,movement,1.0,4,0,65.0,35.0,50.0,50.0
1083.714999957,265,r,32,m,70.0,f,90.0,65.0,50.0,movement,1.0,4,1,65.0,35.0,50.0,50.0
1065.3750000056,269,r,32,m,70.0,f,90.0,90.0,0.0,movement,2.0,4,1,90.0,10.0,0.0,100.0
1156.5300000366,272,r,32,m,70.0,f,90.0,75.0,25.0,movement,2.0,4,1,75.0,25.0,25.0,75.0
1178.7599999225,275,r,32,m,74.0,j,270.0,60.0,0.0,movement,2.0,4,1,40.0,60.0,100.0,0.0
956.57999999821,278,r,32,m,74.0,j,270.0,75.0,25.0,movement,2.0,4,1,25.0,75.0,75.0,25.0
1166.7000000598,281,r,32,m,74.0,j,270.0,75.0,100.0,movement,2.0,4,1,25.0,75.0,0.0,100.0
915.03999999259,284,r,32,m,74.0,j,270.0,75.0,0.0,movement,2.0,4,1,25.0,75.0,100.0,0.0
781.71000001021,287,r,32,m,70.0,f,90.0,90.0,25.0,movement,2.0,4,1,90.0,10.0,25.0,75.0
920.23000004701,290,r,32,m,70.0,f,90.0,75.0,75.0,movement,2.0,4,1,75.0,25.0,75.0,25.0
1232.8500000294,293,r,32,m,70.0,f,90.0,60.0,25.0,movement,2.0,4,1,60.0,40.0,25.0,75.0
1010.9950000187,296,r,32,m,74.0,j,270.0,75.0,75.0,movement,2.0,4,1,25.0,75.0,25.0,75.0
791.10999999102,299,r,32,m,70.0,f,90.0,90.0,75.0,movement,2.0,4,1,90.0,10.0,75.0,25.0
932.5349999126,302,r,32,m,74.0,j,270.0,90.0,0.0,movement,2.0,4,1,10.0,90.0,100.0,0.0
914.66000000946,305,r,32,m,74.0,j,270.0,90.0,100.0,movement,2.0,4,1,10.0,90.0,0.0,100.0
898.2000000542,308,r,32,m,70.0,f,90.0,75.0,0.0,movement,2.0,4,1,75.0,25.0,0.0,100.0
1017.344999942,311,r,32,m,70.0,f,90.0,90.0,100.0,movement,2.0,4,1,90.0,10.0,100.0,0.0
921.63500003517,314,r,32,m,74.0,j,270.0,60.0,100.0,movement,2.0,4,1,40.0,60.0,0.0,100.0
1132.484999951,317,r,32,m,70.0,f,90.0,60.0,0.0,movement,2.0,4,1,60.0,40.0,0.0,100.0
983.7599999737,320,r,32,m,70.0,f,90.0,75.0,100.0,movement,2.0,4,1,75.0,25.0,100.0,0.0
1018.6300000641,323,r,32,m,70.0,f,90.0,60.0,75.0,movement,2.0,4,1,60.0,40.0,75.0,25.0
1055.1699999487,326,r,32,m,70.0,j,270.0,60.0,25.0,movement,2.0,4,0,40.0,60.0,75.0,25.0
942.87000002805,329,r,32,m,74.0,j,270.0,60.0,75.0,movement,2.0,4,1,40.0,60.0,25.0,75.0
997.4500000244,332,r,32,m,70.0,f,90.0,60.0,100.0,movement,2.0,4,1,60.0,40.0,100.0,0.0
820.91999996919,335,r,32,m,74.0,j,270.0,90.0,75.0,movement,2.0,4,1,10.0,90.0,25.0,75.0
989.51500002295,338,r,32,m,74.0,j,270.0,90.0,25.0,movement,2.0,4,1,10.0,90.0,75.0,25.0
692.11499998346,342,r,32,m,74.0,j,270.0,90.0,0.0,movement,3.0,4,1,10.0,90.0,100.0,0.0
738.3400000399,345,r,32,m,70.0,f,90.0,90.0,25.0,movement,3.0,4,1,90.0,10.0,25.0,75.0
716.72500006389,348,r,32,m,74.0,j,270.0,90.0,75.0,movement,3.0,4,1,10.0,90.0,25.0,75.0
852.73500008043,351,r,32,m,70.0,f,90.0,75.0,0.0,movement,3.0,4,1,75.0,25.0,0.0,100.0
793.63500000909,354,r,32,m,70.0,f,90.0,90.0,100.0,movement,3.0,4,1,90.0,10.0,100.0,0.0
1302.7000000002,357,r,32,m,70.0,f,90.0,60.0,75.0,movement,3.0,4,1,60.0,40.0,75.0,25.0
1121.4100000216,360,r,32,m,74.0,j,270.0,75.0,25.0,movement,3.0,4,1,25.0,75.0,75.0,25.0
999.3999999715,363,r,32,m,74.0,j,270.0,60.0,75.0,movement,3.0,4,1,40.0,60.0,25.0,75.0
761.89500000328,366,r,32,m,70.0,f,90.0,75.0,100.0,movement,3.0,4,1,75.0,25.0,100.0,0.0
943.6599999899,369,r,32,m,70.0,f,90.0,60.0,25.0,movement,3.0,4,1,60.0,40.0,25.0,75.0
913.99499995168,372,r,32,m,74.0,j,270.0,75.0,75.0,movement,3.0,4,1,25.0,75.0,25.0,75.0
1243.8150000526,375,r,32,m,70.0,j,270.0,75.0,0.0,movement,3.0,4,0,25.0,75.0,100.0,0.0
941.07499998063,378,r,32,m,70.0,j,270.0,60.0,100.0,movement,3.0,4,0,40.0,60.0,0.0,100.0
799.01499999687,381,r,32,m,74.0,j,270.0,90.0,100.0,movement,3.0,4,1,10.0,90.0,0.0,100.0
731.63000005297,384,r,32,m,70.0,f,90.0,75.0,25.0,movement,3.0,4,1,75.0,25.0,25.0,75.0
896.81499998551,387,r,32,m,70.0,f,90.0,90.0,75.0,movement,3.0,4,1,90.0,10.0,75.0,25.0
890.05499996711,390,r,32,m,74.0,j,270.0,60.0,25.0,movement,3.0,4,1,40.0,60.0,75.0,25.0
916.05999995954,393,r,32,m,74.0,j,270.0,90.0,25.0,movement,3.0,4,1,10.0,90.0,75.0,25.0
1029.0100000566,396,r,32,m,74.0,j,270.0,60.0,0.0,movement,3.0,4,1,40.0,60.0,100.0,0.0
1377.344999928,399,r,32,m,70.0,f,90.0,60.0,0.0,movement,3.0,4,1,60.0,40.0,0.0,100.0
833.61000008881,402,r,32,m,74.0,j,270.0,75.0,100.0,movement,3.0,4,1,25.0,75.0,0.0,100.0
764.97000001837,405,r,32,m,70.0,f,90.0,90.0,0.0,movement,3.0,4,1,90.0,10.0,0.0,100.0
766.40500000212,408,r,32,m,74.0,f,90.0,60.0,100.0,movement,3.0,4,0,60.0,40.0,100.0,0.0
678.88999998104,411,r,32,m,70.0,f,90.0,75.0,75.0,movement,3.0,4,1,75.0,25.0,75.0,25.0
753.01999994554,415,r,32,m,74.0,j,270.0,90.0,0.0,movement,4.0,4,1,10.0,90.0,100.0,0.0
1005.1949999761,418,r,32,m,70.0,f,90.0,75.0,0.0,movement,4.0,4,1,75.0,25.0,0.0,100.0
808.49000008311,421,r,32,m,74.0,j,270.0,60.0,100.0,movement,4.0,4,1,40.0,60.0,0.0,100.0
892.97000004444,424,r,32,m,70.0,f,90.0,60.0,0.0,movement,4.0,4,1,60.0,40.0,0.0,100.0
809.91499999072,427,r,32,m,74.0,j,270.0,60.0,0.0,movement,4.0,4,1,40.0,60.0,100.0,0.0
645.40499995928,430,r,32,m,70.0,f,90.0,75.0,75.0,movement,4.0,4,1,75.0,25.0,75.0,25.0
709.2249999987,433,r,32,m,70.0,f,90.0,60.0,100.0,movement,4.0,4,1,60.0,40.0,100.0,0.0
689.4349999493,436,r,32,m,74.0,j,270.0,75.0,0.0,movement,4.0,4,1,25.0,75.0,100.0,0.0
555.3249999648,439,r,32,m,70.0,f,90.0,75.0,100.0,movement,4.0,4,1,75.0,25.0,100.0,0.0
860.60000001453,442,r,32,m,74.0,j,270.0,90.0,75.0,movement,4.0,4,1,10.0,90.0,25.0,75.0
789.80999998748,445,r,32,m,70.0,j,270.0,60.0,75.0,movement,4.0,4,0,40.0,60.0,25.0,75.0
763.0450000288,448,r,32,m,70.0,j,270.0,75.0,25.0,movement,4.0,4,0,25.0,75.0,75.0,25.0
644.32500000112,451,r,32,m,70.0,f,90.0,90.0,100.0,movement,4.0,4,1,90.0,10.0,100.0,0.0
902.11499994621,454,r,32,m,74.0,f,90.0,75.0,25.0,movement,4.0,4,0,75.0,25.0,25.0,75.0
731.60499997903,457,r,32,m,70.0,f,90.0,90.0,75.0,movement,4.0,4,1,90.0,10.0,75.0,25.0
959.30999994744,460,r,32,m,74.0,j,270.0,90.0,25.0,movement,4.0,4,1,10.0,90.0,75.0,25.0
759.77000000421,463,r,32,m,74.0,j,270.0,75.0,100.0,movement,4.0,4,1,25.0,75.0,0.0,100.0
963.80999998655,466,r,32,m,70.0,j,270.0,60.0,25.0,movement,4.0,4,0,40.0,60.0,75.0,25.0
720.86499992292,469,r,32,m,70.0,f,90.0,60.0,25.0,movement,4.0,4,1,60.0,40.0,25.0,75.0
757.12500000373,472,r,32,m,70.0,f,90.0,90.0,25.0,movement,4.0,4,1,90.0,10.0,25.0,75.0
852.48499992304,475,r,32,m,74.0,j,270.0,75.0,75.0,movement,4.0,4,1,25.0,75.0,25.0,75.0
668.21000003256,478,r,32,m,70.0,f,90.0,60.0,75.0,movement,4.0,4,1,60.0,40.0,75.0,25.0
766.68999996036,481,r,32,m,74.0,j,270.0,90.0,100.0,movement,4.0,4,1,10.0,90.0,0.0,100.0
939.29999996908,484,r,32,m,70.0,f,90.0,90.0,0.0,movement,4.0,4,1,90.0,10.0,0.0,100.0
948.83000000846,488,r,32,m,70.0,j,270.0,75.0,0.0,movement,5.0,4,0,25.0,75.0,100.0,0.0
1106.4999999944,491,r,32,m,70.0,j,270.0,75.0,75.0,movement,5.0,4,0,25.0,75.0,25.0,75.0
683.48500004504,494,r,32,m,74.0,j,270.0,75.0,100.0,movement,5.0,4,1,25.0,75.0,0.0,100.0
728.97000005469,497,r,32,m,70.0,f,90.0,75.0,0.0,movement,5.0,4,1,75.0,25.0,0.0,100.0
804.7699999297,500,r,32,m,70.0,f,90.0,90.0,100.0,movement,5.0,4,1,90.0,10.0,100.0,0.0
927.99499991816,503,r,32,m,70.0,f,90.0,60.0,75.0,movement,5.0,4,1,60.0,40.0,75.0,25.0
1006.0999999987,506,r,32,m,74.0,f,90.0,60.0,0.0,movement,5.0,4,0,60.0,40.0,0.0,100.0
793.77499991097,509,r,32,m,70.0,j,270.0,60.0,100.0,movement,5.0,4,0,40.0,60.0,0.0,100.0
836.93500002846,512,r,32,m,70.0,j,270.0,60.0,25.0,movement,5.0,4,0,40.0,60.0,75.0,25.0
1107.2600000771,515,r,32,m,70.0,f,90.0,90.0,0.0,movement,5.0,4,1,90.0,10.0,0.0,100.0
1231.9250000874,518,r,32,m,70.0,f,90.0,75.0,75.0,movement,5.0,4,1,75.0,25.0,75.0,25.0
1381.4400000265,521,r,32,m,70.0,f,90.0,90.0,25.0,movement,5.0,4,1,90.0,10.0,25.0,75.0
1250.9149999823,524,r,32,m,70.0,f,90.0,75.0,100.0,movement,5.0,4,1,75.0,25.0,100.0,0.0
1328.2400000608,527,r,32,m,70.0,f,90.0,60.0,100.0,movement,5.0,4,1,60.0,40.0,100.0,0.0
1318.1650000624,530,r,32,m,74.0,j,270.0,75.0,25.0,movement,5.0,4,1,25.0,75.0,75.0,25.0
924.81500003487,533,r,32,m,70.0,j,270.0,60.0,0.0,movement,5.0,4,0,40.0,60.0,100.0,0.0
1018.2950000744,536,r,32,m,70.0,f,90.0,90.0,75.0,movement,5.0,4,1,90.0,10.0,75.0,25.0
1220.6350000342,539,r,32,m,74.0,j,270.0,90.0,75.0,movement,5.0,4,1,10.0,90.0,25.0,75.0
1244.7499999544,542,r,32,m,74.0,j,270.0,90.0,25.0,movement,5.0,4,1,10.0,90.0,75.0,25.0
1202.1950000199,545,r,32,m,74.0,j,270.0,90.0,0.0,movement,5.0,4,1,10.0,90.0,100.0,0.0
1165.1549999369,548,r,32,m,70.0,j,270.0,60.0,75.0,movement,5.0,4,0,40.0,60.0,25.0,75.0
1139.4650000148,551,r,32,m,70.0,f,90.0,60.0,25.0,movement,5.0,4,1,60.0,40.0,25.0,75.0
923.36500005331,554,r,32,m,74.0,j,270.0,90.0,100.0,movement,5.0,4,1,10.0,90.0,0.0,100.0
1254.345000023,557,r,32,m,70.0,f,90.0,75.0,25.0,movement,5.0,4,1,75.0,25.0,25.0,75.0
-1.0,2,r,31,m,-1.0,f,90.0,80.0,100.0,movement,0.0,5,0,80.0,20.0,100.0,0.0
1026.0,5,r,31,m,70.0,f,90.0,100.0,50.0,movement,0.0,5,1,100.0,0.0,50.0,50.0
1001.0,8,r,31,m,70.0,f,90.0,100.0,100.0,movement,0.0,5,1,100.0,0.0,100.0,0.0
803.0,11,r,31,m,74.0,j,270.0,100.0,100.0,movement,0.0,5,1,0.0,100.0,0.0,100.0
768.0,14,r,31,m,74.0,j,270.0,100.0,50.0,movement,0.0,5,1,0.0,100.0,50.0,50.0
542.0,17,r,31,m,70.0,f,90.0,80.0,50.0,movement,0.0,5,1,80.0,20.0,50.0,50.0
596.0,20,r,31,m,74.0,j,270.0,80.0,100.0,movement,0.0,5,1,20.0,80.0,0.0,100.0
681.0,23,r,31,m,74.0,j,270.0,80.0,50.0,movement,0.0,5,1,20.0,80.0,50.0,50.0
1197.0,27,r,31,m,70.0,f,90.0,80.0,100.0,movement,0.0,5,1,80.0,20.0,100.0,0.0
1120.0,30,r,31,m,70.0,f,90.0,100.0,50.0,movement,0.0,5,1,100.0,0.0,50.0,50.0
812.0,33,r,31,m,74.0,j,270.0,80.0,100.0,movement,0.0,5,1,20.0,80.0,0.0,100.0
1035.0,36,r,31,m,70.0,j,270.0,100.0,100.0,movement,0.0,5,0,0.0,100.0,0.0,100.0
589.0,39,r,31,m,70.0,f,90.0,100.0,100.0,movement,0.0,5,1,100.0,0.0,100.0,0.0
695.0,42,r,31,m,74.0,j,270.0,100.0,50.0,movement,0.0,5,1,0.0,100.0,50.0,50.0
1070.0,45,r,31,m,74.0,j,270.0,80.0,50.0,movement,0.0,5,1,20.0,80.0,50.0,50.0
946.0,48,r,31,m,70.0,f,90.0,80.0,50.0,movement,0.0,5,1,80.0,20.0,50.0,50.0
1381.0,52,r,31,m,74.0,j,270.0,65.0,50.0,movement,1.0,5,1,35.0,65.0,50.0,50.0
1001.0,55,r,31,m,70.0,f,90.0,65.0,50.0,movement,1.0,5,1,65.0,35.0,50.0,50.0
1389.0,58,r,31,m,70.0,j,270.0,65.0,50.0,movement,1.0,5,0,35.0,65.0,50.0,50.0
900.0,61,r,31,m,70.0,f,90.0,65.0,50.0,movement,1.0,5,1,65.0,35.0,50.0,50.0
1055.0,64,r,31,m,70.0,j,270.0,65.0,50.0,movement,1.0,5,0,35.0,65.0,50.0,50.0
1003.0,67,r,31,m,74.0,f,90.0,65.0,50.0,movement,1.0,5,0,65.0,35.0,50.0,50.0
1515.0,70,r,31,m,70.0,j,270.0,65.0,50.0,movement,1.0,5,0,35.0,65.0,50.0,50.0
1097.0,73,r,31,m,74.0,j,270.0,65.0,50.0,movement,1.0,5,1,35.0,65.0,50.0,50.0
737.0,76,r,31,m,74.0,j,270.0,65.0,50.0,movement,1.0,5,1,35.0,65.0,50.0,50.0
677.0,79,r,31,m,74.0,f,90.0,65.0,50.0,movement,1.0,5,0,65.0,35.0,50.0,50.0
823.0,82,r,31,m,74.0,f,90.0,65.0,50.0,movement,1.0,5,0,65.0,35.0,50.0,50.0
1588.0,85,r,31,m,74.0,j,270.0,65.0,50.0,movement,1.0,5,1,35.0,65.0,50.0,50.0
1654.0,88,r,31,m,70.0,f,90.0,65.0,50.0,movement,1.0,5,1,65.0,35.0,50.0,50.0
1125.0,91,r,31,m,70.0,j,270.0,65.0,50.0,movement,1.0,5,0,35.0,65.0,50.0,50.0
1526.0,94,r,31,m,70.0,f,90.0,65.0,50.0,movement,1.0,5,1,65.0,35.0,50.0,50.0
1183.0,97,r,31,m,70.0,j,270.0,65.0,50.0,movement,1.0,5,0,35.0,65.0,50.0,50.0
951.0,100,r,31,m,74.0,j,270.0,65.0,50.0,movement,1.0,5,1,35.0,65.0,50.0,50.0
917.0,103,r,31,m,70.0,f,90.0,65.0,50.0,movement,1.0,5,1,65.0,35.0,50.0,50.0
782.0,106,r,31,m,74.0,j,270.0,65.0,50.0,movement,1.0,5,1,35.0,65.0,50.0,50.0
891.0,109,r,31,m,74.0,f,90.0,65.0,50.0,movement,1.0,5,0,65.0,35.0,50.0,50.0
765.0,112,r,31,m,70.0,j,270.0,65.0,50.0,movement,1.0,5,0,35.0,65.0,50.0,50.0
655.0,115,r,31,m,74.0,f,90.0,65.0,50.0,movement,1.0,5,0,65.0,35.0,50.0,50.0
1387.0,118,r,31,m,70.0,j,270.0,65.0,50.0,movement,1.0,5,0,35.0,65.0,50.0,50.0
1246.0,121,r,31,m,74.0,f,90.0,65.0,50.0,movement,1.0,5,0,65.0,35.0,50.0,50.0
1221.0,124,r,31,m,70.0,f,90.0,65.0,50.0,movement,1.0,5,1,65.0,35.0,50.0,50.0
1362.0,127,r,31,m,70.0,f,90.0,65.0,50.0,movement,1.0,5,1,65.0,35.0,50.0,50.0
1514.0,130,r,31,m,70.0,f,90.0,65.0,50.0,movement,1.0,5,1,65.0,35.0,50.0,50.0
1318.0,133,r,31,m,70.0,j,270.0,65.0,50.0,movement,1.0,5,0,35.0,65.0,50.0,50.0
957.0,136,r,31,m,74.0,f,90.0,65.0,50.0,movement,1.0,5,0,65.0,35.0,50.0,50.0
966.0,139,r,31,m,70.0,j,270.0,65.0,50.0,movement,1.0,5,0,35.0,65.0,50.0,50.0
718.0,142,r,31,m,74.0,f,90.0,65.0,50.0,movement,1.0,5,0,65.0,35.0,50.0,50.0
394.0,145,r,31,m,70.0,j,270.0,65.0,50.0,movement,1.0,5,0,35.0,65.0,50.0,50.0
256.0,148,r,31,m,70.0,j,270.0,65.0,50.0,movement,1.0,5,0,35.0,65.0,50.0,50.0
280.0,151,r,31,m,70.0,f,90.0,65.0,50.0,movement,1.0,5,1,65.0,35.0,50.0,50.0
1317.0,154,r,31,m,70.0,j,270.0,30.0,23.076923076923077,movement,1.0,5,0,70.0,30.0,23.076923076923077,23.076923076923077
1769.0,157,r,31,m,70.0,f,90.0,30.0,23.076923076923077,movement,1.0,5,1,30.0,70.0,23.076923076923077,23.076923076923077
1098.0,160,r,31,m,70.0,f,90.0,65.0,50.0,movement,1.0,5,1,65.0,35.0,50.0,50.0
1177.0,163,r,31,m,70.0,f,90.0,65.0,50.0,movement,1.0,5,1,65.0,35.0,50.0,50.0
1484.0,166,r,31,m,74.0,j,270.0,30.0,23.076923076923077,movement,1.0,5,1,70.0,30.0,23.076923076923077,23.076923076923077
1374.0,169,r,31,m,74.0,f,90.0,65.0,50.0,movement,1.0,5,0,65.0,35.0,50.0,50.0
1689.0,172,r,31,m,70.0,j,270.0,30.0,23.076923076923077,movement,1.0,5,0,70.0,30.0,23.076923076923077,23.076923076923077
879.0,175,r,31,m,70.0,j,270.0,65.0,50.0,movement,1.0,5,0,35.0,65.0,50.0,50.0
1152.0,178,r,31,m,70.0,j,270.0,65.0,50.0,movement,1.0,5,0,35.0,65.0,50.0,50.0
676.0,181,r,31,m,74.0,j,270.0,65.0,50.0,movement,1.0,5,1,35.0,65.0,50.0,50.0
1825.0,184,r,31,m,74.0,j,270.0,65.0,50.0,movement,1.0,5,1,35.0,65.0,50.0,50.0
1397.0,187,r,31,m,70.0,f,90.0,65.0,50.0,movement,1.0,5,1,65.0,35.0,50.0,50.0
1215.0,190,r,31,m,74.0,j,270.0,65.0,50.0,movement,1.0,5,1,35.0,65.0,50.0,50.0
1459.0,193,r,31,m,70.0,f,90.0,65.0,50.0,movement,1.0,5,1,65.0,35.0,50.0,50.0
1547.0,196,r,31,m,70.0,f,90.0,65.0,50.0,movement,1.0,5,1,65.0,35.0,50.0,50.0
1651.0,199,r,31,m,70.0,j,270.0,65.0,50.0,movement,1.0,5,0,35.0,65.0,50.0,50.0
875.0,202,r,31,m,74.0,f,90.0,65.0,50.0,movement,1.0,5,0,65.0,35.0,50.0,50.0
492.0,205,r,31,m,70.0,f,90.0,65.0,50.0,movement,1.0,5,1,65.0,35.0,50.0,50.0
1448.0,208,r,31,m,70.0,j,270.0,65.0,50.0,movement,1.0,5,0,35.0,65.0,50.0,50.0
712.0,211,r,31,m,74.0,j,270.0,65.0,50.0,movement,1.0,5,1,35.0,65.0,50.0,50.0
1155.0,214,r,31,m,70.0,f,90.0,65.0,50.0,movement,1.0,5,1,65.0,35.0,50.0,50.0
-1.0,217,r,31,m,-1.0,j,270.0,65.0,50.0,movement,1.0,5,0,35.0,65.0,50.0,50.0
1042.0,220,r,31,m,70.0,j,270.0,65.0,50.0,movement,1.0,5,0,35.0,65.0,50.0,50.0
739.0,223,r,31,m,74.0,j,270.0,65.0,50.0,movement,1.0,5,1,35.0,65.0,50.0,50.0
1516.0,226,r,31,m,70.0,f,90.0,65.0,50.0,movement,1.0,5,1,65.0,35.0,50.0,50.0
1047.0,229,r,31,m,70.0,f,90.0,65.0,50.0,movement,1.0,5,1,65.0,35.0,50.0,50.0
1472.0,232,r,31,m,70.0,f,90.0,65.0,50.0,movement,1.0,5,1,65.0,35.0,50.0,50.0
-1.0,235,r,31,m,-1.0,f,90.0,65.0,50.0,movement,1.0,5,0,65.0,35.0,50.0,50.0
-1.0,238,r,31,m,-1.0,j,270.0,65.0,50.0,movement,1.0,5,0,35.0,65.0,50.0,50.0
1519.0,241,r,31,m,70.0,f,90.0,65.0,50.0,movement,1.0,5,1,65.0,35.0,50.0,50.0
-1.0,244,r,31,m,-1.0,f,90.0,30.0,23.076923076923077,movement,1.0,5,0,30.0,70.0,23.076923076923077,23.076923076923077
733.0,247,r,31,m,70.0,f,90.0,30.0,23.076923076923077,movement,1.0,5,1,30.0,70.0,23.076923076923077,23.076923076923077
908.0,250,r,31,m,70.0,j,270.0,30.0,23.076923076923077,movement,1.0,5,0,70.0,30.0,23.076923076923077,23.076923076923077
930.0,253,r,31,m,70.0,j,270.0,30.0,23.076923076923077,movement,1.0,5,0,70.0,30.0,23.076923076923077,23.076923076923077
1299.0,256,r,31,m,70.0,f,90.0,30.0,23.076923076923077,movement,1.0,5,1,30.0,70.0,23.076923076923077,23.076923076923077
880.0,259,r,31,m,70.0,j,270.0,30.0,23.076923076923077,movement,1.0,5,0,70.0,30.0,23.076923076923077,23.076923076923077
939.0,262,r,31,m,70.0,f,90.0,30.0,23.076923076923077,movement,1.0,5,1,30.0,70.0,23.076923076923077,23.076923076923077
915.0,265,r,31,m,74.0,j,270.0,30.0,23.076923076923077,movement,1.0,5,1,70.0,30.0,23.076923076923077,23.076923076923077
1849.0,269,r,31,m,74.0,j,270.0,75.0,75.0,movement,2.0,5,1,25.0,75.0,25.0,75.0
738.0,272,r,31,m,74.0,j,270.0,75.0,100.0,movement,2.0,5,1,25.0,75.0,0.0,100.0
1302.0,275,r,31,m,70.0,j,270.0,75.0,0.0,movement,2.0,5,0,25.0,75.0,100.0,0.0
1518.0,278,r,31,m,70.0,j,270.0,75.0,25.0,movement,2.0,5,0,25.0,75.0,75.0,25.0
981.0,281,r,31,m,74.0,j,270.0,60.0,100.0,movement,2.0,5,1,40.0,60.0,0.0,100.0
1618.0,284,r,31,m,74.0,f,90.0,75.0,100.0,movement,2.0,5,0,75.0,25.0,100.0,0.0
1198.0,287,r,31,m,70.0,j,270.0,60.0,25.0,movement,2.0,5,0,40.0,60.0,75.0,25.0
1845.0,290,r,31,m,70.0,j,270.0,60.0,75.0,movement,2.0,5,0,40.0,60.0,25.0,75.0
1031.0,293,r,31,m,74.0,f,90.0,90.0,100.0,movement,2.0,5,0,90.0,10.0,100.0,0.0
778.0,296,r,31,m,70.0,f,90.0,75.0,75.0,movement,2.0,5,1,75.0,25.0,75.0,25.0
800.0,299,r,31,m,74.0,j,270.0,60.0,0.0,movement,2.0,5,1,40.0,60.0,100.0,0.0
1715.0,302,r,31,m,74.0,f,90.0,90.0,75.0,movement,2.0,5,0,90.0,10.0,75.0,25.0
1914.0,305,r,31,m,74.0,j,270.0,90.0,75.0,movement,2.0,5,1,10.0,90.0,25.0,75.0
1772.0,308,r,31,m,74.0,j,270.0,90.0,25.0,movement,2.0,5,1,10.0,90.0,75.0,25.0
1309.0,311,r,31,m,70.0,f,90.0,90.0,25.0,movement,2.0,5,1,90.0,10.0,25.0,75.0
1980.0,314,r,31,m,70.0,f,90.0,90.0,0.0,movement,2.0,5,1,90.0,10.0,0.0,100.0
1077.0,317,r,31,m,70.0,f,90.0,60.0,100.0,movement,2.0,5,1,60.0,40.0,100.0,0.0
846.0,320,r,31,m,74.0,j,270.0,90.0,100.0,movement,2.0,5,1,10.0,90.0,0.0,100.0
949.0,323,r,31,m,70.0,f,90.0,75.0,25.0,movement,2.0,5,1,75.0,25.0,25.0,75.0
1276.0,326,r,31,m,70.0,f,90.0,75.0,0.0,movement,2.0,5,1,75.0,25.0,0.0,100.0
930.0,329,r,31,m,70.0,f,90.0,60.0,25.0,movement,2.0,5,1,60.0,40.0,25.0,75.0
857.0,332,r,31,m,70.0,f,90.0,60.0,0.0,movement,2.0,5,1,60.0,40.0,0.0,100.0
920.0,335,r,31,m,70.0,f,90.0,60.0,75.0,movement,2.0,5,1,60.0,40.0,75.0,25.0
1314.0,338,r,31,m,70.0,j,270.0,90.0,0.0,movement,2.0,5,0,10.0,90.0,100.0,0.0
1081.0,342,r,31,m,70.0,f,90.0,75.0,75.0,movement,3.0,5,1,75.0,25.0,75.0,25.0
1621.0,345,r,31,m,74.0,j,270.0,75.0,0.0,movement,3.0,5,1,25.0,75.0,100.0,0.0
800.0,348,r,31,m,70.0,f,90.0,90.0,75.0,movement,3.0,5,1,90.0,10.0,75.0,25.0
1744.0,351,r,31,m,70.0,f,90.0,75.0,100.0,movement,3.0,5,1,75.0,25.0,100.0,0.0
1480.0,354,r,31,m,70.0,f,90.0,90.0,100.0,movement,3.0,5,1,90.0,10.0,100.0,0.0
1812.0,357,r,31,m,70.0,j,270.0,60.0,0.0,movement,3.0,5,0,40.0,60.0,100.0,0.0
899.0,360,r,31,m,70.0,j,270.0,90.0,75.0,movement,3.0,5,0,10.0,90.0,25.0,75.0
1097.0,363,r,31,m,74.0,j,270.0,60.0,100.0,movement,3.0,5,1,40.0,60.0,0.0,100.0
1884.0,366,r,31,m,70.0,j,270.0,75.0,25.0,movement,3.0,5,0,25.0,75.0,75.0,25.0
1362.0,369,r,31,m,70.0,j,270.0,90.0,25.0,movement,3.0,5,0,10.0,90.0,75.0,25.0
-1.0,372,r,31,m,-1.0,j,270.0,60.0,75.0,movement,3.0,5,0,40.0,60.0,25.0,75.0
1571.0,375,r,31,m,70.0,f,90.0,90.0,25.0,movement,3.0,5,1,90.0,10.0,25.0,75.0
772.0,378,r,31,m,70.0,j,270.0,60.0,25.0,movement,3.0,5,0,40.0,60.0,75.0,25.0
1036.0,381,r,31,m,74.0,j,270.0,75.0,100.0,movement,3.0,5,1,25.0,75.0,0.0,100.0
1806.0,384,r,31,m,70.0,f,90.0,90.0,0.0,movement,3.0,5,1,90.0,10.0,0.0,100.0
1730.0,387,r,31,m,70.0,j,270.0,75.0,75.0,movement,3.0,5,0,25.0,75.0,25.0,75.0
1330.0,390,r,31,m,70.0,f,90.0,60.0,25.0,movement,3.0,5,1,60.0,40.0,25.0,75.0
745.0,393,r,31,m,70.0,f,90.0,75.0,0.0,movement,3.0,5,1,75.0,25.0,0.0,100.0
802.0,396,r,31,m,74.0,j,270.0,90.0,100.0,movement,3.0,5,1,10.0,90.0,0.0,100.0
822.0,399,r,31,m,74.0,f,90.0,60.0,100.0,movement,3.0,5,0,60.0,40.0,100.0,0.0
703.0,402,r,31,m,70.0,f,90.0,60.0,75.0,movement,3.0,5,1,60.0,40.0,75.0,25.0
1597.0,405,r,31,m,74.0,j,270.0,90.0,0.0,movement,3.0,5,1,10.0,90.0,100.0,0.0
1686.0,408,r,31,m,70.0,f,90.0,60.0,0.0,movement,3.0,5,1,60.0,40.0,0.0,100.0
1597.0,411,r,31,m,70.0,f,90.0,75.0,25.0,movement,3.0,5,1,75.0,25.0,25.0,75.0
920.0,415,r,31,m,70.0,f,90.0,90.0,75.0,movement,4.0,5,1,90.0,10.0,75.0,25.0
602.0,418,r,31,m,70.0,f,90.0,75.0,75.0,movement,4.0,5,1,75.0,25.0,75.0,25.0
583.0,421,r,31,m,70.0,f,90.0,75.0,100.0,movement,4.0,5,1,75.0,25.0,100.0,0.0
1246.0,424,r,31,m,74.0,j,270.0,75.0,0.0,movement,4.0,5,1,25.0,75.0,100.0,0.0
965.0,427,r,31,m,70.0,j,270.0,60.0,0.0,movement,4.0,5,0,40.0,60.0,100.0,0.0
1391.0,430,r,31,m,70.0,j,270.0,90.0,75.0,movement,4.0,5,0,10.0,90.0,25.0,75.0
833.0,433,r,31,m,70.0,f,90.0,90.0,100.0,movement,4.0,5,1,90.0,10.0,100.0,0.0
648.0,436,r,31,m,70.0,j,270.0,60.0,100.0,movement,4.0,5,0,40.0,60.0,0.0,100.0
727.0,439,r,31,m,70.0,j,270.0,75.0,25.0,movement,4.0,5,0,25.0,75.0,75.0,25.0
716.0,442,r,31,m,70.0,j,270.0,60.0,25.0,movement,4.0,5,0,40.0,60.0,75.0,25.0
1419.0,445,r,31,m,74.0,j,270.0,75.0,100.0,movement,4.0,5,1,25.0,75.0,0.0,100.0
713.0,448,r,31,m,70.0,f,90.0,90.0,0.0,movement,4.0,5,1,90.0,10.0,0.0,100.0
740.0,451,r,31,m,74.0,j,270.0,90.0,25.0,movement,4.0,5,1,10.0,90.0,75.0,25.0
1638.0,454,r,31,m,74.0,j,270.0,75.0,75.0,movement,4.0,5,1,25.0,75.0,25.0,75.0
1171.0,457,r,31,m,70.0,j,270.0,60.0,75.0,movement,4.0,5,0,40.0,60.0,25.0,75.0
643.0,460,r,31,m,70.0,f,90.0,90.0,25.0,movement,4.0,5,1,90.0,10.0,25.0,75.0
1413.0,463,r,31,m,70.0,f,90.0,60.0,25.0,movement,4.0,5,1,60.0,40.0,25.0,75.0
901.0,466,r,31,m,74.0,j,270.0,90.0,100.0,movement,4.0,5,1,10.0,90.0,0.0,100.0
726.0,469,r,31,m,70.0,f,90.0,60.0,100.0,movement,4.0,5,1,60.0,40.0,100.0,0.0
1274.0,472,r,31,m,70.0,f,90.0,75.0,0.0,movement,4.0,5,1,75.0,25.0,0.0,100.0
730.0,475,r,31,m,70.0,f,90.0,60.0,0.0,movement,4.0,5,1,60.0,40.0,0.0,100.0
749.0,478,r,31,m,70.0,f,90.0,60.0,75.0,movement,4.0,5,1,60.0,40.0,75.0,25.0
696.0,481,r,31,m,74.0,j,270.0,90.0,0.0,movement,4.0,5,1,10.0,90.0,100.0,0.0
596.0,484,r,31,m,70.0,f,90.0,75.0,25.0,movement,4.0,5,1,75.0,25.0,25.0,75.0
1376.0,488,r,31,m,70.0,f,90.0,75.0,100.0,movement,5.0,5,1,75.0,25.0,100.0,0.0
703.0,491,r,31,m,70.0,f,90.0,75.0,75.0,movement,5.0,5,1,75.0,25.0,75.0,25.0
734.0,494,r,31,m,70.0,f,90.0,90.0,75.0,movement,5.0,5,1,90.0,10.0,75.0,25.0
770.0,497,r,31,m,74.0,j,270.0,75.0,0.0,movement,5.0,5,1,25.0,75.0,100.0,0.0
607.0,500,r,31,m,74.0,j,270.0,90.0,75.0,movement,5.0,5,1,10.0,90.0,25.0,75.0
642.0,503,r,31,m,70.0,j,270.0,60.0,0.0,movement,5.0,5,0,40.0,60.0,100.0,0.0
588.0,506,r,31,m,70.0,f,90.0,90.0,100.0,movement,5.0,5,1,90.0,10.0,100.0,0.0
727.0,509,r,31,m,74.0,j,270.0,60.0,100.0,movement,5.0,5,1,40.0,60.0,0.0,100.0
576.0,512,r,31,m,74.0,j,270.0,75.0,75.0,movement,5.0,5,1,25.0,75.0,25.0,75.0
654.0,515,r,31,m,70.0,j,270.0,60.0,25.0,movement,5.0,5,0,40.0,60.0,75.0,25.0
1141.0,518,r,31,m,74.0,j,270.0,90.0,25.0,movement,5.0,5,1,10.0,90.0,75.0,25.0
1154.0,521,r,31,m,70.0,f,90.0,90.0,0.0,movement,5.0,5,1,90.0,10.0,0.0,100.0
906.0,524,r,31,m,74.0,j,270.0,75.0,100.0,movement,5.0,5,1,25.0,75.0,0.0,100.0
787.0,527,r,31,m,74.0,j,270.0,75.0,25.0,movement,5.0,5,1,25.0,75.0,75.0,25.0
626.0,530,r,31,m,74.0,j,270.0,60.0,75.0,movement,5.0,5,1,40.0,60.0,25.0,75.0
546.0,533,r,31,m,70.0,f,90.0,90.0,25.0,movement,5.0,5,1,90.0,10.0,25.0,75.0
884.0,536,r,31,m,70.0,f,90.0,60.0,25.0,movement,5.0,5,1,60.0,40.0,25.0,75.0
777.0,539,r,31,m,70.0,f,90.0,60.0,75.0,movement,5.0,5,1,60.0,40.0,75.0,25.0
678.0,542,r,31,m,74.0,f,90.0,60.0,0.0,movement,5.0,5,0,60.0,40.0,0.0,100.0
764.0,545,r,31,m,70.0,f,90.0,60.0,100.0,movement,5.0,5,1,60.0,40.0,100.0,0.0
765.0,548,r,31,m,70.0,f,90.0,75.0,25.0,movement,5.0,5,1,75.0,25.0,25.0,75.0
793.0,551,r,31,m,74.0,j,270.0,90.0,0.0,movement,5.0,5,1,10.0,90.0,100.0,0.0
866.0,554,r,31,m,74.0,j,270.0,90.0,100.0,movement,5.0,5,1,10.0,90.0,0.0,100.0
671.0,557,r,31,m,70.0,f,90.0,75.0,0.0,movement,5.0,5,1,75.0,25.0,0.0,100.0
-1.0,2,r,24,m,-1.0,j,270.0,100.0,100.0,movement,0.0,6,0,0.0,100.0,0.0,100.0
1038.2399999653,5,r,24,m,70.0,f,90.0,80.0,100.0,movement,0.0,6,1,80.0,20.0,100.0,0.0
966.8449999881,8,r,24,m,70.0,f,90.0,100.0,50.0,movement,0.0,6,1,100.0,0.0,50.0,50.0
1315.8999999869,11,r,24,m,74.0,j,270.0,80.0,100.0,movement,0.0,6,1,20.0,80.0,0.0,100.0
888.02000001306,14,r,24,m,74.0,j,270.0,100.0,50.0,movement,0.0,6,1,0.0,100.0,50.0,50.0
787.66000003088,17,r,24,m,70.0,f,90.0,100.0,100.0,movement,0.0,6,1,100.0,0.0,100.0,0.0
1338.7750000111,20,r,24,m,74.0,j,270.0,80.0,50.0,movement,0.0,6,1,20.0,80.0,50.0,50.0
1785.7150000054,23,r,24,m,74.0,f,90.0,80.0,50.0,movement,0.0,6,0,80.0,20.0,50.0,50.0
1333.7150000152,27,r,24,m,70.0,f,90.0,80.0,100.0,movement,0.0,6,1,80.0,20.0,100.0,0.0
1440.8450000337,30,r,24,m,74.0,j,270.0,100.0,100.0,movement,0.0,6,1,0.0,100.0,0.0,100.0
-1.0,33,r,24,m,-1.0,j,270.0,80.0,50.0,movement,0.0,6,0,20.0,80.0,50.0,50.0
1686.7650000495,36,r,24,m,70.0,f,90.0,80.0,50.0,movement,0.0,6,1,80.0,20.0,50.0,50.0
1172.6100000087,39,r,24,m,70.0,f,90.0,100.0,50.0,movement,0.0,6,1,100.0,0.0,50.0,50.0
1036.465000012,42,r,24,m,70.0,f,90.0,100.0,100.0,movement,0.0,6,1,100.0,0.0,100.0,0.0
1109.5199999982,45,r,24,m,74.0,j,270.0,80.0,100.0,movement,0.0,6,1,20.0,80.0,0.0,100.0
1015.3999999748,48,r,24,m,74.0,j,270.0,100.0,50.0,movement,0.0,6,1,0.0,100.0,50.0,50.0
1140.3399999836,52,r,24,m,70.0,f,90.0,65.0,50.0,movement,1.0,6,1,65.0,35.0,50.0,50.0
1458.0000000424,55,r,24,m,70.0,f,90.0,30.0,23.076923076923077,movement,1.0,6,1,30.0,70.0,23.076923076923077,23.076923076923077
1468.4899999993,58,r,24,m,74.0,f,90.0,65.0,50.0,movement,1.0,6,0,65.0,35.0,50.0,50.0
1421.2899999693,61,r,24,m,70.0,f,90.0,65.0,50.0,movement,1.0,6,1,65.0,35.0,50.0,50.0
1976.3650000095,64,r,24,m,70.0,j,270.0,65.0,50.0,movement,1.0,6,0,35.0,65.0,50.0,50.0
-1.0,67,r,24,m,-1.0,f,90.0,65.0,50.0,movement,1.0,6,0,65.0,35.0,50.0,50.0
1638.6150000035,70,r,24,m,74.0,f,90.0,65.0,50.0,movement,1.0,6,0,65.0,35.0,50.0,50.0
-1.0,73,r,24,m,-1.0,f,90.0,65.0,50.0,movement,1.0,6,0,65.0,35.0,50.0,50.0
1168.5899999575,76,r,24,m,74.0,j,270.0,65.0,50.0,movement,1.0,6,1,35.0,65.0,50.0,50.0
1194.3900000188,79,r,24,m,70.0,f,90.0,30.0,23.076923076923077,movement,1.0,6,1,30.0,70.0,23.076923076923077,23.076923076923077
-1.0,82,r,24,m,-1.0,j,270.0,65.0,50.0,movement,1.0,6,0,35.0,65.0,50.0,50.0
1510.9949999605,85,r,24,m,70.0,f,90.0,65.0,50.0,movement,1.0,6,1,65.0,35.0,50.0,50.0
1172.1200000029,88,r,24,m,70.0,f,90.0,65.0,50.0,movement,1.0,6,1,65.0,35.0,50.0,50.0
1173.4200000064,91,r,24,m,70.0,j,270.0,65.0,50.0,movement,1.0,6,0,35.0,65.0,50.0,50.0
1249.9049999751,94,r,24,m,74.0,j,270.0,65.0,50.0,movement,1.0,6,1,35.0,65.0,50.0,50.0
-1.0,97,r,24,m,-1.0,f,90.0,30.0,23.076923076923077,movement,1.0,6,0,30.0,70.0,23.076923076923077,23.076923076923077
985.61000003247,100,r,24,m,74.0,j,270.0,65.0,50.0,movement,1.0,6,1,35.0,65.0,50.0,50.0
1508.8250000263,103,r,24,m,70.0,f,90.0,65.0,50.0,movement,1.0,6,1,65.0,35.0,50.0,50.0
1138.1449999753,106,r,24,m,74.0,j,270.0,65.0,50.0,movement,1.0,6,1,35.0,65.0,50.0,50.0
1463.9500000048,109,r,24,m,74.0,j,270.0,65.0,50.0,movement,1.0,6,1,35.0,65.0,50.0,50.0
1388.2999999914,112,r,24,m,74.0,j,270.0,30.0,23.076923076923077,movement,1.0,6,1,70.0,30.0,23.076923076923077,23.076923076923077
1307.9150000121,115,r,24,m,74.0,j,270.0,65.0,50.0,movement,1.0,6,1,35.0,65.0,50.0,50.0
1698.7800000352,118,r,24,m,74.0,j,270.0,65.0,50.0,movement,1.0,6,1,35.0,65.0,50.0,50.0
1631.9800000056,121,r,24,m,74.0,j,270.0,65.0,50.0,movement,1.0,6,1,35.0,65.0,50.0,50.0
-1.0,124,r,24,m,-1.0,f,90.0,65.0,50.0,movement,1.0,6,0,65.0,35.0,50.0,50.0
1651.5299999737,127,r,24,m,70.0,f,90.0,65.0,50.0,movement,1.0,6,1,65.0,35.0,50.0,50.0
1358.6300000316,130,r,24,m,74.0,j,270.0,65.0,50.0,movement,1.0,6,1,35.0,65.0,50.0,50.0
1439.710000006,133,r,24,m,70.0,f,90.0,65.0,50.0,movement,1.0,6,1,65.0,35.0,50.0,50.0
1678.5049999598,136,r,24,m,74.0,f,90.0,30.0,23.076923076923077,movement,1.0,6,0,30.0,70.0,23.076923076923077,23.076923076923077
1469.7949999827,139,r,24,m,74.0,j,270.0,65.0,50.0,movement,1.0,6,1,35.0,65.0,50.0,50.0
1364.505000005,142,r,24,m,74.0,j,270.0,30.0,23.076923076923077,movement,1.0,6,1,70.0,30.0,23.076923076923077,23.076923076923077
1030.700000003,145,r,24,m,70.0,f,90.0,65.0,50.0,movement,1.0,6,1,65.0,35.0,50.0,50.0
1372.9750000057,148,r,24,m,70.0,f,90.0,65.0,50.0,movement,1.0,6,1,65.0,35.0,50.0,50.0
1065.7150000334,151,r,24,m,74.0,j,270.0,65.0,50.0,movement,1.0,6,1,35.0,65.0,50.0,50.0
1472.219999996,154,r,24,m,70.0,f,90.0,30.0,23.076923076923077,movement,1.0,6,1,30.0,70.0,23.076923076923077,23.076923076923077
1618.4199999552,157,r,24,m,70.0,f,90.0,65.0,50.0,movement,1.0,6,1,65.0,35.0,50.0,50.0
1633.3999999915,160,r,24,m,74.0,j,270.0,65.0,50.0,movement,1.0,6,1,35.0,65.0,50.0,50.0
1401.7749999766,163,r,24,m,74.0,j,270.0,30.0,23.076923076923077,movement,1.0,6,1,70.0,30.0,23.076923076923077,23.076923076923077
1218.8750000205,166,r,24,m,70.0,f,90.0,65.0,50.0,movement,1.0,6,1,65.0,35.0,50.0,50.0
1710.3450000286,169,r,24,m,74.0,j,270.0,65.0,50.0,movement,1.0,6,1,35.0,65.0,50.0,50.0
1931.6499999841,172,r,24,m,70.0,f,90.0,30.0,23.076923076923077,movement,1.0,6,1,30.0,70.0,23.076923076923077,23.076923076923077
1778.6750000087,175,r,24,m,70.0,f,90.0,65.0,50.0,movement,1.0,6,1,65.0,35.0,50.0,50.0
1838.7849999708,178,r,24,m,70.0,f,90.0,65.0,50.0,movement,1.0,6,1,65.0,35.0,50.0,50.0
1729.5450000092,181,r,24,m,74.0,f,90.0,65.0,50.0,movement,1.0,6,0,65.0,35.0,50.0,50.0
-1.0,184,r,24,m,-1.0,f,90.0,65.0,50.0,movement,1.0,6,0,65.0,35.0,50.0,50.0
1937.6100000227,187,r,24,m,70.0,j,270.0,65.0,50.0,movement,1.0,6,0,35.0,65.0,50.0,50.0
-1.0,190,r,24,m,-1.0,f,90.0,30.0,23.076923076923077,movement,1.0,6,0,30.0,70.0,23.076923076923077,23.076923076923077
1373.5950000118,193,r,24,m,74.0,f,90.0,65.0,50.0,movement,1.0,6,0,65.0,35.0,50.0,50.0
1600.4299999913,196,r,24,m,70.0,f,90.0,65.0,50.0,movement,1.0,6,1,65.0,35.0,50.0,50.0
1225.9150000173,199,r,24,m,74.0,j,270.0,65.0,50.0,movement,1.0,6,1,35.0,65.0,50.0,50.0
1286.1099999864,202,r,24,m,74.0,j,270.0,65.0,50.0,movement,1.0,6,1,35.0,65.0,50.0,50.0
1418.4399999795,205,r,24,m,74.0,j,270.0,30.0,23.076923076923077,movement,1.0,6,1,70.0,30.0,23.076923076923077,23.076923076923077
1421.9450000091,208,r,24,m,74.0,j,270.0,65.0,50.0,movement,1.0,6,1,35.0,65.0,50.0,50.0
1469.310000015,211,r,24,m,74.0,j,270.0,65.0,50.0,movement,1.0,6,1,35.0,65.0,50.0,50.0
1203.1050000223,214,r,24,m,70.0,f,90.0,65.0,50.0,movement,1.0,6,1,65.0,35.0,50.0,50.0
1122.0200000098,217,r,24,m,70.0,f,90.0,30.0,23.076923076923077,movement,1.0,6,1,30.0,70.0,23.076923076923077,23.076923076923077
1781.3300000271,220,r,24,m,70.0,f,90.0,65.0,50.0,movement,1.0,6,1,65.0,35.0,50.0,50.0
1747.3549999995,223,r,24,m,70.0,f,90.0,65.0,50.0,movement,1.0,6,1,65.0,35.0,50.0,50.0
1173.1999999611,226,r,24,m,74.0,j,270.0,65.0,50.0,movement,1.0,6,1,35.0,65.0,50.0,50.0
1354.6300000162,229,r,24,m,70.0,f,90.0,65.0,50.0,movement,1.0,6,1,65.0,35.0,50.0,50.0
1535.5449999915,232,r,24,m,70.0,j,270.0,65.0,50.0,movement,1.0,6,0,35.0,65.0,50.0,50.0
1030.6299999938,235,r,24,m,74.0,j,270.0,65.0,50.0,movement,1.0,6,1,35.0,65.0,50.0,50.0
1576.1599999969,238,r,24,m,74.0,j,270.0,65.0,50.0,movement,1.0,6,1,35.0,65.0,50.0,50.0
1187.0149999741,241,r,24,m,74.0,j,270.0,65.0,50.0,movement,1.0,6,1,35.0,65.0,50.0,50.0
1277.2899999982,244,r,24,m,74.0,j,270.0,65.0,50.0,movement,1.0,6,1,35.0,65.0,50.0,50.0
1618.3399999863,247,r,24,m,74.0,j,270.0,65.0,50.0,movement,1.0,6,1,35.0,65.0,50.0,50.0
1603.9250000031,250,r,24,m,74.0,j,270.0,65.0,50.0,movement,1.0,6,1,35.0,65.0,50.0,50.0
1458.079999953,253,r,24,m,74.0,f,90.0,65.0,50.0,movement,1.0,6,0,65.0,35.0,50.0,50.0
-1.0,256,r,24,m,-1.0,j,270.0,65.0,50.0,movement,1.0,6,0,35.0,65.0,50.0,50.0
858.19499997888,259,r,24,m,70.0,f,90.0,65.0,50.0,movement,1.0,6,1,65.0,35.0,50.0,50.0
-1.0,262,r,24,m,-1.0,j,270.0,65.0,50.0,movement,1.0,6,0,35.0,65.0,50.0,50.0
915.62500002328,265,r,24,m,74.0,j,270.0,65.0,50.0,movement,1.0,6,1,35.0,65.0,50.0,50.0
1350.5550000118,269,r,24,m,74.0,j,270.0,75.0,0.0,movement,2.0,6,1,25.0,75.0,100.0,0.0
1052.3799999501,272,r,24,m,70.0,f,90.0,75.0,75.0,movement,2.0,6,1,75.0,25.0,75.0,25.0
908.72000000672,275,r,24,m,70.0,f,90.0,90.0,0.0,movement,2.0,6,1,90.0,10.0,0.0,100.0
778.3000000054,278,r,24,m,74.0,j,270.0,60.0,75.0,movement,2.0,6,1,40.0,60.0,25.0,75.0
1603.3099999768,281,r,24,m,70.0,f,90.0,60.0,0.0,movement,2.0,6,1,60.0,40.0,0.0,100.0
772.94499997515,284,r,24,m,74.0,j,270.0,75.0,75.0,movement,2.0,6,1,25.0,75.0,25.0,75.0
1367.0300000231,287,r,24,m,74.0,f,90.0,75.0,25.0,movement,2.0,6,0,75.0,25.0,25.0,75.0
965.7850000076,290,r,24,m,70.0,f,90.0,90.0,25.0,movement,2.0,6,1,90.0,10.0,25.0,75.0
789.2850000062,293,r,24,m,74.0,j,270.0,90.0,25.0,movement,2.0,6,1,10.0,90.0,75.0,25.0
790.42500001378,296,r,24,m,70.0,f,90.0,60.0,100.0,movement,2.0,6,1,60.0,40.0,100.0,0.0
686.22000003234,299,r,24,m,74.0,j,270.0,90.0,0.0,movement,2.0,6,1,10.0,90.0,100.0,0.0
641.70999999624,302,r,24,m,74.0,j,270.0,75.0,25.0,movement,2.0,6,1,25.0,75.0,75.0,25.0
1327.9500000062,305,r,24,m,74.0,f,90.0,60.0,75.0,movement,2.0,6,0,60.0,40.0,75.0,25.0
1420.9499999997,308,r,24,m,74.0,j,270.0,75.0,100.0,movement,2.0,6,1,25.0,75.0,0.0,100.0
1024.9649999896,311,r,24,m,74.0,j,270.0,90.0,75.0,movement,2.0,6,1,10.0,90.0,25.0,75.0
1172.0850000274,314,r,24,m,70.0,f,90.0,75.0,100.0,movement,2.0,6,1,75.0,25.0,100.0,0.0
843.25999999419,317,r,24,m,70.0,f,90.0,90.0,75.0,movement,2.0,6,1,90.0,10.0,75.0,25.0
799.63500000304,320,r,24,m,70.0,f,90.0,90.0,100.0,movement,2.0,6,1,90.0,10.0,100.0,0.0
1060.3099999717,323,r,24,m,70.0,f,90.0,75.0,0.0,movement,2.0,6,1,75.0,25.0,0.0,100.0
1666.1750000203,326,r,24,m,70.0,j,270.0,60.0,25.0,movement,2.0,6,0,40.0,60.0,75.0,25.0
938.93000000389,329,r,24,m,74.0,j,270.0,60.0,0.0,movement,2.0,6,1,40.0,60.0,100.0,0.0
788.77500002272,332,r,24,m,74.0,f,90.0,60.0,25.0,movement,2.0,6,0,60.0,40.0,25.0,75.0
897.01499999501,335,r,24,m,74.0,j,270.0,90.0,100.0,movement,2.0,6,1,10.0,90.0,0.0,100.0
905.48000001581,338,r,24,m,70.0,j,270.0,60.0,100.0,movement,2.0,6,0,40.0,60.0,0.0,100.0
1010.7599999756,342,r,24,m,74.0,j,270.0,75.0,0.0,movement,3.0,6,1,25.0,75.0,100.0,0.0
782.24999998929,345,r,24,m,74.0,j,270.0,90.0,100.0,movement,3.0,6,1,10.0,90.0,0.0,100.0
920.68499996094,348,r,24,m,74.0,j,270.0,90.0,75.0,movement,3.0,6,1,10.0,90.0,25.0,75.0
1577.5850000209,351,r,24,m,74.0,j,270.0,75.0,25.0,movement,3.0,6,1,25.0,75.0,75.0,25.0
775.46000003349,354,r,24,m,70.0,f,90.0,90.0,100.0,movement,3.0,6,1,90.0,10.0,100.0,0.0
887.34499999555,357,r,24,m,74.0,j,270.0,60.0,100.0,movement,3.0,6,1,40.0,60.0,0.0,100.0
727.30500000762,360,r,24,m,70.0,f,90.0,60.0,100.0,movement,3.0,6,1,60.0,40.0,100.0,0.0
785.29999998864,363,r,24,m,70.0,f,90.0,60.0,25.0,movement,3.0,6,1,60.0,40.0,25.0,75.0
795.02000001958,366,r,24,m,70.0,f,90.0,75.0,100.0,movement,3.0,6,1,75.0,25.0,100.0,0.0
-1.0,369,r,24,m,-1.0,f,90.0,60.0,75.0,movement,3.0,6,0,60.0,40.0,75.0,25.0
738.51499997545,372,r,24,m,74.0,j,270.0,75.0,100.0,movement,3.0,6,1,25.0,75.0,0.0,100.0
806.99500004994,375,r,24,m,70.0,f,90.0,90.0,75.0,movement,3.0,6,1,90.0,10.0,75.0,25.0
755.9449999826,378,r,24,m,70.0,f,90.0,75.0,75.0,movement,3.0,6,1,75.0,25.0,75.0,25.0
988.70000004536,381,r,24,m,70.0,f,90.0,90.0,25.0,movement,3.0,6,1,90.0,10.0,25.0,75.0
677.25000000792,384,r,24,m,74.0,j,270.0,90.0,0.0,movement,3.0,6,1,10.0,90.0,100.0,0.0
1935.2349999826,387,r,24,m,70.0,f,90.0,75.0,25.0,movement,3.0,6,1,75.0,25.0,25.0,75.0
823.48000002094,390,r,24,m,74.0,j,270.0,60.0,0.0,movement,3.0,6,1,40.0,60.0,100.0,0.0
855.59500003001,393,r,24,m,70.0,f,90.0,60.0,0.0,movement,3.0,6,1,60.0,40.0,0.0,100.0
957.78500003507,396,r,24,m,70.0,j,270.0,60.0,25.0,movement,3.0,6,0,40.0,60.0,75.0,25.0
1641.2500000442,399,r,24,m,70.0,j,270.0,60.0,75.0,movement,3.0,6,0,40.0,60.0,25.0,75.0
-1.0,402,r,24,m,-1.0,f,90.0,90.0,0.0,movement,3.0,6,0,90.0,10.0,0.0,100.0
844.11000000546,405,r,24,m,70.0,f,90.0,75.0,0.0,movement,3.0,6,1,75.0,25.0,0.0,100.0
750.6150000263,408,r,24,m,74.0,j,270.0,75.0,75.0,movement,3.0,6,1,25.0,75.0,25.0,75.0
589.51999997953,411,r,24,m,74.0,j,270.0,90.0,25.0,movement,3.0,6,1,10.0,90.0,75.0,25.0
950.1450000098,415,r,24,m,70.0,f,90.0,90.0,25.0,movement,4.0,6,1,90.0,10.0,25.0,75.0
1044.2449999973,418,r,24,m,70.0,f,90.0,60.0,25.0,movement,4.0,6,1,60.0,40.0,25.0,75.0
707.10999995936,421,r,24,m,74.0,j,270.0,75.0,0.0,movement,4.0,6,1,25.0,75.0,100.0,0.0
610.8499999973,424,r,24,m,74.0,j,270.0,90.0,100.0,movement,4.0,6,1,10.0,90.0,0.0,100.0
1021.3000000222,427,r,24,m,74.0,j,270.0,60.0,100.0,movement,4.0,6,1,40.0,60.0,0.0,100.0
1262.8600000171,430,r,24,m,74.0,j,270.0,75.0,100.0,movement,4.0,6,1,25.0,75.0,0.0,100.0
1853.9899999741,433,r,24,m,70.0,f,90.0,60.0,0.0,movement,4.0,6,1,60.0,40.0,0.0,100.0
1259.4999999856,436,r,24,m,74.0,j,270.0,90.0,0.0,movement,4.0,6,1,10.0,90.0,100.0,0.0
928.66500001401,439,r,24,m,70.0,f,90.0,90.0,75.0,movement,4.0,6,1,90.0,10.0,75.0,25.0
832.53000001423,442,r,24,m,70.0,f,90.0,75.0,0.0,movement,4.0,6,1,75.0,25.0,0.0,100.0
1141.7450000299,445,r,24,m,74.0,j,270.0,60.0,25.0,movement,4.0,6,1,40.0,60.0,75.0,25.0
673.54500002693,448,r,24,m,74.0,j,270.0,90.0,75.0,movement,4.0,6,1,10.0,90.0,25.0,75.0
1094.8000000208,451,r,24,m,70.0,f,90.0,60.0,100.0,movement,4.0,6,1,60.0,40.0,100.0,0.0
849.01499998523,454,r,24,m,70.0,f,90.0,75.0,75.0,movement,4.0,6,1,75.0,25.0,75.0,25.0
798.10499999439,457,r,24,m,74.0,j,270.0,90.0,25.0,movement,4.0,6,1,10.0,90.0,75.0,25.0
1385.1900000009,460,r,24,m,70.0,f,90.0,60.0,75.0,movement,4.0,6,1,60.0,40.0,75.0,25.0
1006.7550000385,463,r,24,m,70.0,j,270.0,75.0,75.0,movement,4.0,6,0,25.0,75.0,25.0,75.0
1104.7050000052,466,r,24,m,70.0,f,90.0,90.0,0.0,movement,4.0,6,1,90.0,10.0,0.0,100.0
1272.0049999771,469,r,24,m,74.0,j,270.0,60.0,75.0,movement,4.0,6,1,40.0,60.0,25.0,75.0
1792.6350000198,472,r,24,m,74.0,f,90.0,75.0,100.0,movement,4.0,6,0,75.0,25.0,100.0,0.0
1684.2099999776,475,r,24,m,74.0,j,270.0,60.0,0.0,movement,4.0,6,1,40.0,60.0,100.0,0.0
1505.8299999801,478,r,24,m,74.0,f,90.0,75.0,25.0,movement,4.0,6,0,75.0,25.0,25.0,75.0
1282.9950000159,481,r,24,m,70.0,f,90.0,90.0,100.0,movement,4.0,6,1,90.0,10.0,100.0,0.0
1482.7800000203,484,r,24,m,74.0,j,270.0,75.0,25.0,movement,4.0,6,1,25.0,75.0,75.0,25.0
1096.8400000129,488,r,24,m,74.0,j,270.0,75.0,100.0,movement,5.0,6,1,25.0,75.0,0.0,100.0
1487.1500000008,491,r,24,m,74.0,j,270.0,90.0,25.0,movement,5.0,6,1,10.0,90.0,75.0,25.0
886.04000001214,494,r,24,m,70.0,f,90.0,90.0,100.0,movement,5.0,6,1,90.0,10.0,100.0,0.0
896.3250000379,497,r,24,m,74.0,j,270.0,75.0,75.0,movement,5.0,6,1,25.0,75.0,25.0,75.0
842.09000004921,500,r,24,m,70.0,f,90.0,60.0,75.0,movement,5.0,6,1,60.0,40.0,75.0,25.0
754.52499999665,503,r,24,m,74.0,j,270.0,60.0,100.0,movement,5.0,6,1,40.0,60.0,0.0,100.0
722.65000001062,506,r,24,m,70.0,f,90.0,90.0,25.0,movement,5.0,6,1,90.0,10.0,25.0,75.0
722.92000002926,509,r,24,m,70.0,f,90.0,75.0,75.0,movement,5.0,6,1,75.0,25.0,75.0,25.0
892.35999999801,512,r,24,m,74.0,f,90.0,60.0,0.0,movement,5.0,6,0,60.0,40.0,0.0,100.0
1069.2050000071,515,r,24,m,70.0,j,270.0,60.0,0.0,movement,5.0,6,0,40.0,60.0,100.0,0.0
1437.340000004,518,r,24,m,74.0,j,270.0,60.0,25.0,movement,5.0,6,1,40.0,60.0,75.0,25.0
1522.649999999,521,r,24,m,74.0,j,270.0,90.0,0.0,movement,5.0,6,1,10.0,90.0,100.0,0.0
1088.9549999847,524,r,24,m,70.0,f,90.0,75.0,100.0,movement,5.0,6,1,75.0,25.0,100.0,0.0
685.69499999285,527,r,24,m,70.0,f,90.0,60.0,25.0,movement,5.0,6,1,60.0,40.0,25.0,75.0
1104.7050000052,530,r,24,m,74.0,j,270.0,60.0,75.0,movement,5.0,6,1,40.0,60.0,25.0,75.0
868.62999998266,533,r,24,m,74.0,j,270.0,90.0,75.0,movement,5.0,6,1,10.0,90.0,25.0,75.0
877.90999998106,536,r,24,m,70.0,f,90.0,90.0,75.0,movement,5.0,6,1,90.0,10.0,75.0,25.0
855.49500002526,539,r,24,m,70.0,f,90.0,75.0,25.0,movement,5.0,6,1,75.0,25.0,25.0,75.0
1402.3900000029,542,r,24,m,74.0,j,270.0,75.0,0.0,movement,5.0,6,1,25.0,75.0,100.0,0.0
871.78500002483,545,r,24,m,74.0,j,270.0,75.0,25.0,movement,5.0,6,1,25.0,75.0,75.0,25.0
855.20499997074,548,r,24,m,74.0,j,270.0,90.0,100.0,movement,5.0,6,1,10.0,90.0,0.0,100.0
822.29499996174,551,r,24,m,70.0,f,90.0,60.0,100.0,movement,5.0,6,1,60.0,40.0,100.0,0.0
787.6099999994,554,r,24,m,70.0,f,90.0,90.0,0.0,movement,5.0,6,1,90.0,10.0,0.0,100.0
821.33499998599,557,r,24,m,70.0,f,90.0,75.0,0.0,movement,5.0,6,1,75.0,25.0,0.0,100.0
296.72500002198,2,r,29,m,70.0,j,270.0,80.0,100.0,movement,0.0,7,0,20.0,80.0,0.0,100.0
1838.3800000884,5,r,29,m,74.0,f,90.0,80.0,50.0,movement,0.0,7,0,80.0,20.0,50.0,50.0
1358.7099998258,8,r,29,m,70.0,f,90.0,100.0,100.0,movement,0.0,7,1,100.0,0.0,100.0,0.0
780.43999988586,11,r,29,m,74.0,j,270.0,100.0,100.0,movement,0.0,7,1,0.0,100.0,0.0,100.0
1149.3649999611,14,r,29,m,74.0,j,270.0,80.0,50.0,movement,0.0,7,1,20.0,80.0,50.0,50.0
921.10999999568,17,r,29,m,70.0,f,90.0,100.0,50.0,movement,0.0,7,1,100.0,0.0,50.0,50.0
1413.0499998573,20,r,29,m,70.0,f,90.0,80.0,100.0,movement,0.0,7,1,80.0,20.0,100.0,0.0
787.95000002719,23,r,29,m,74.0,j,270.0,100.0,50.0,movement,0.0,7,1,0.0,100.0,50.0,50.0
1015.0999999605,27,r,29,m,70.0,f,90.0,100.0,100.0,movement,0.0,7,1,100.0,0.0,100.0,0.0
1237.1000000276,30,r,29,m,74.0,j,270.0,80.0,100.0,movement,0.0,7,1,20.0,80.0,0.0,100.0
1236.0950000584,33,r,29,m,70.0,f,90.0,80.0,50.0,movement,0.0,7,1,80.0,20.0,50.0,50.0
930.24999997579,36,r,29,m,74.0,j,270.0,100.0,50.0,movement,0.0,7,1,0.0,100.0,50.0,50.0
1163.4899999481,39,r,29,m,74.0,f,90.0,80.0,100.0,movement,0.0,7,0,80.0,20.0,100.0,0.0
1232.0199999958,42,r,29,m,74.0,j,270.0,80.0,50.0,movement,0.0,7,1,20.0,80.0,50.0,50.0
926.02999997325,45,r,29,m,74.0,j,270.0,100.0,100.0,movement,0.0,7,1,0.0,100.0,0.0,100.0
970.28000000864,48,r,29,m,70.0,f,90.0,100.0,50.0,movement,0.0,7,1,100.0,0.0,50.0,50.0
1491.2399998866,52,r,29,m,74.0,j,270.0,65.0,50.0,movement,1.0,7,1,35.0,65.0,50.0,50.0
2002.9450000729,55,r,29,m,74.0,j,270.0,65.0,50.0,movement,1.0,7,1,35.0,65.0,50.0,50.0
1807.9649999272,58,r,29,m,70.0,f,90.0,65.0,50.0,movement,1.0,7,1,65.0,35.0,50.0,50.0
1410.9150001314,61,r,29,m,70.0,f,90.0,65.0,50.0,movement,1.0,7,1,65.0,35.0,50.0,50.0
-1.0,64,r,29,m,-1.0,j,270.0,65.0,50.0,movement,1.0,7,0,35.0,65.0,50.0,50.0
1239.1600001138,67,r,29,m,74.0,j,270.0,65.0,50.0,movement,1.0,7,1,35.0,65.0,50.0,50.0
1194.1199998837,70,r,29,m,74.0,j,270.0,65.0,50.0,movement,1.0,7,1,35.0,65.0,50.0,50.0
1870.5500001088,73,r,29,m,74.0,f,90.0,65.0,50.0,movement,1.0,7,0,65.0,35.0,50.0,50.0
1489.3500001635,76,r,29,m,74.0,j,270.0,65.0,50.0,movement,1.0,7,1,35.0,65.0,50.0,50.0
1323.9800001029,79,r,29,m,70.0,j,270.0,65.0,50.0,movement,1.0,7,0,35.0,65.0,50.0,50.0
1808.5199999623,82,r,29,m,74.0,j,270.0,65.0,50.0,movement,1.0,7,1,35.0,65.0,50.0,50.0
1778.3599998802,85,r,29,m,74.0,j,270.0,65.0,50.0,movement,1.0,7,1,35.0,65.0,50.0,50.0
1851.7399998382,88,r,29,m,70.0,f,90.0,65.0,50.0,movement,1.0,7,1,65.0,35.0,50.0,50.0
1857.0850000251,91,r,29,m,70.0,f,90.0,65.0,50.0,movement,1.0,7,1,65.0,35.0,50.0,50.0
1035.1700000465,94,r,29,m,70.0,f,90.0,65.0,50.0,movement,1.0,7,1,65.0,35.0,50.0,50.0
1505.4150000215,97,r,29,m,74.0,j,270.0,65.0,50.0,movement,1.0,7,1,35.0,65.0,50.0,50.0
1089.849999873,100,r,29,m,74.0,j,270.0,65.0,50.0,movement,1.0,7,1,35.0,65.0,50.0,50.0
1352.6399999391,103,r,29,m,74.0,j,270.0,30.0,23.076923076923077,movement,1.0,7,1,70.0,30.0,23.076923076923077,23.076923076923077
1605.029999977,106,r,29,m,74.0,j,270.0,30.0,23.076923076923077,movement,1.0,7,1,70.0,30.0,23.076923076923077,23.076923076923077
833.07499997318,109,r,29,m,70.0,f,90.0,65.0,50.0,movement,1.0,7,1,65.0,35.0,50.0,50.0
1737.8400000744,112,r,29,m,70.0,f,90.0,65.0,50.0,movement,1.0,7,1,65.0,35.0,50.0,50.0
1272.6000000257,115,r,29,m,74.0,j,270.0,30.0,23.076923076923077,movement,1.0,7,1,70.0,30.0,23.076923076923077,23.076923076923077
804.20499993488,118,r,29,m,70.0,f,90.0,65.0,50.0,movement,1.0,7,1,65.0,35.0,50.0,50.0
770.47000010498,121,r,29,m,70.0,f,90.0,65.0,50.0,movement,1.0,7,1,65.0,35.0,50.0,50.0
1351.7700000666,124,r,29,m,74.0,j,270.0,65.0,50.0,movement,1.0,7,1,35.0,65.0,50.0,50.0
951.45000005141,127,r,29,m,70.0,f,90.0,65.0,50.0,movement,1.0,7,1,65.0,35.0,50.0,50.0
1421.1799998302,130,r,29,m,74.0,f,90.0,65.0,50.0,movement,1.0,7,0,65.0,35.0,50.0,50.0
-1.0,133,r,29,m,-1.0,j,270.0,65.0,50.0,movement,1.0,7,0,35.0,65.0,50.0,50.0
1586.415000027,136,r,29,m,74.0,j,270.0,65.0,50.0,movement,1.0,7,1,35.0,65.0,50.0,50.0
1099.9199999496,139,r,29,m,74.0,j,270.0,65.0,50.0,movement,1.0,7,1,35.0,65.0,50.0,50.0
1721.744999988,142,r,29,m,70.0,f,90.0,65.0,50.0,movement,1.0,7,1,65.0,35.0,50.0,50.0
1568.4650000185,145,r,29,m,74.0,j,270.0,30.0,23.076923076923077,movement,1.0,7,1,70.0,30.0,23.076923076923077,23.076923076923077
1390.7000001054,148,r,29,m,74.0,j,270.0,65.0,50.0,movement,1.0,7,1,35.0,65.0,50.0,50.0
1579.5249999501,151,r,29,m,74.0,f,90.0,30.0,23.076923076923077,movement,1.0,7,0,30.0,70.0,23.076923076923077,23.076923076923077
1943.8000000082,154,r,29,m,70.0,j,270.0,65.0,50.0,movement,1.0,7,0,35.0,65.0,50.0,50.0
-1.0,157,r,29,m,-1.0,f,90.0,30.0,23.076923076923077,movement,1.0,7,0,30.0,70.0,23.076923076923077,23.076923076923077
1349.3099999614,160,r,29,m,74.0,j,270.0,65.0,50.0,movement,1.0,7,1,35.0,65.0,50.0,50.0
1812.1350000147,163,r,29,m,70.0,f,90.0,65.0,50.0,movement,1.0,7,1,65.0,35.0,50.0,50.0
1709.3000002205,166,r,29,m,74.0,j,270.0,65.0,50.0,movement,1.0,7,1,35.0,65.0,50.0,50.0
1995.1750000473,169,r,29,m,74.0,f,90.0,65.0,50.0,movement,1.0,7,0,65.0,35.0,50.0,50.0
1850.1550001092,172,r,29,m,70.0,f,90.0,65.0,50.0,movement,1.0,7,1,65.0,35.0,50.0,50.0
1270.470000105,175,r,29,m,74.0,j,270.0,65.0,50.0,movement,1.0,7,1,35.0,65.0,50.0,50.0
748.70000011288,178,r,29,m,74.0,j,270.0,65.0,50.0,movement,1.0,7,1,35.0,65.0,50.0,50.0
923.62500005402,181,r,29,m,70.0,f,90.0,30.0,23.076923076923077,movement,1.0,7,1,30.0,70.0,23.076923076923077,23.076923076923077
1698.3950000722,184,r,29,m,70.0,f,90.0,30.0,23.076923076923077,movement,1.0,7,1,30.0,70.0,23.076923076923077,23.076923076923077
1157.6200001873,187,r,29,m,74.0,f,90.0,65.0,50.0,movement,1.0,7,0,65.0,35.0,50.0,50.0
1040.5000001192,190,r,29,m,74.0,f,90.0,65.0,50.0,movement,1.0,7,0,65.0,35.0,50.0,50.0
1793.6800001189,193,r,29,m,70.0,f,90.0,65.0,50.0,movement,1.0,7,1,65.0,35.0,50.0,50.0
834.98500008136,196,r,29,m,74.0,j,270.0,65.0,50.0,movement,1.0,7,1,35.0,65.0,50.0,50.0
1002.7999999002,199,r,29,m,74.0,j,270.0,30.0,23.076923076923077,movement,1.0,7,1,70.0,30.0,23.076923076923077,23.076923076923077
1369.1799999215,202,r,29,m,70.0,f,90.0,65.0,50.0,movement,1.0,7,1,65.0,35.0,50.0,50.0
1265.1500001084,205,r,29,m,74.0,f,90.0,65.0,50.0,movement,1.0,7,0,65.0,35.0,50.0,50.0
1416.0299999639,208,r,29,m,74.0,j,270.0,65.0,50.0,movement,1.0,7,1,35.0,65.0,50.0,50.0
1224.6049998794,211,r,29,m,70.0,j,270.0,30.0,23.076923076923077,movement,1.0,7,0,70.0,30.0,23.076923076923077,23.076923076923077
880.37499994971,214,r,29,m,70.0,f,90.0,65.0,50.0,movement,1.0,7,1,65.0,35.0,50.0,50.0
983.99999993853,217,r,29,m,74.0,j,270.0,65.0,50.0,movement,1.0,7,1,35.0,65.0,50.0,50.0
