group,subjectid,block,trial,latency,accuracy,task,tasksequence,source,points,reward
BI_C2_Digit,49.0,1.0,1,1047.0,1.0,2.0,0.0,Raw_Data_III_Digit_Paradigm_2nd_Control_Group,,
BI_C2_Digit,49.0,1.0,2,684.0,1.0,1.0,0.0,Raw_Data_III_Digit_Paradigm_2nd_Control_Group,,
BI_C2_Digit,49.0,1.0,3,1007.0,1.0,2.0,ABA,Raw_Data_III_Digit_Paradigm_2nd_Control_Group,,
BI_C2_Digit,49.0,1.0,4,1174.0,1.0,3.0,CBA,Raw_Data_III_Digit_Paradigm_2nd_Control_Group,,
BI_C2_Digit,49.0,1.0,5,1494.0,1.0,2.0,ABA,Raw_Data_III_Digit_Paradigm_2nd_Control_Group,,
BI_C2_Digit,49.0,1.0,6,427.0,1.0,1.0,CBA,Raw_Data_III_Digit_Paradigm_2nd_Control_Group,,
BI_C2_Digit,49.0,1.0,7,497.0,1.0,2.0,ABA,Raw_Data_III_Digit_Paradigm_2nd_Control_Group,,
BI_C2_Digit,49.0,1.0,8,909.0,1.0,3.0,CBA,Raw_Data_III_Digit_Paradigm_2nd_Control_Group,,
BI_C2_Digit,49.0,1.0,9,417.0,1.0,1.0,CBA,Raw_Data_III_Digit_Paradigm_2nd_Control_Group,,
BI_C2_Digit,49.0,1.0,10,544.0,1.0,2.0,CBA,Raw_Data_III_Digit_Paradigm_2nd_Control_Group,,
BI_C2_Digit,49.0,1.0,11,1873.0,1.0,3.0,CBA,Raw_Data_III_Digit_Paradigm_2nd_Control_Group,,
BI_C2_Digit,49.0,1.0,12,575.0,1.0,1.0,CBA,Raw_Data_III_Digit_Paradigm_2nd_Control_Group,,
BI_C2_Digit,49.0,1.0,13,736.0,0.0,3.0,ABA,Raw_Data_III_Digit_Paradigm_2nd_Control_Group,,
BI_C2_Digit,49.0,1.0,14,1126.0,1.0,2.0,CBA,Raw_Data_III_Digit_Paradigm_2nd_Control_Group,,
BI_C2_Digit,49.0,1.0,15,585.0,1.0,1.0,CBA,Raw_Data_III_Digit_Paradigm_2nd_Control_Group,,
BI_C2_Digit,49.0,1.0,16,610.0,1.0,3.0,CBA,Raw_Data_III_Digit_Paradigm_2nd_Control_Group,,
BI_C2_Digit,49.0,1.0,17,642.0,1.0,1.0,ABA,Raw_Data_III_Digit_Paradigm_2nd_Control_Group,,
BI_C2_Digit,49.0,1.0,18,1415.0,1.0,3.0,ABA,Raw_Data_III_Digit_Paradigm_2nd_Control_Group,,
BI_C2_Digit,49.0,1.0,19,799.0,1.0,1.0,ABA,Raw_Data_III_Digit_Paradigm_2nd_Control_Group,,
BI_C2_Digit,49.0,1.0,20,1279.0,1.0,3.0,ABA,Raw_Data_III_Digit_Paradigm_2nd_Control_Group,,
BI_C2_Digit,49.0,1.0,21,556.0,1.0,1.0,ABA,Raw_Data_III_Digit_Paradigm_2nd_Control_Group,,
BI_C2_Digit,49.0,1.0,22,662.0,1.0,3.0,ABA,Raw_Data_III_Digit_Paradigm_2nd_Control_Group,,
BI_C2_Digit,49.0,1.0,23,779.0,1.0,2.0,CBA,Raw_Data_III_Digit_Paradigm_2nd_Control_Group,,
BI_C2_Digit,49.0,1.0,24,427.0,1.0,1.0,CBA,Raw_Data_III_Digit_Paradigm_2nd_Control_Group,,
BI_C2_Digit,49.0,1.0,25,602.0,1.0,2.0,ABA,Raw_Data_III_Digit_Paradigm_2nd_Control_Group,,
BI_C2_Digit,49.0,1.0,26,370.0,1.0,3.0,CBA,Raw_Data_III_Digit_Paradigm_2nd_Control_Group,,
BI_C2_Digit,49.0,1.0,27,603.0,1.0,2.0,ABA,Raw_Data_III_Digit_Paradigm_2nd_Control_Group,,
BI_C2_Digit,49.0,1.0,28,491.0,1.0,1.0,CBA,Raw_Data_III_Digit_Paradigm_2nd_Control_Group,,
BI_C2_Digit,49.0,1.0,29,599.0,1.0,3.0,CBA,Raw_Data_III_Digit_Paradigm_2nd_Control_Group,,
BI_C2_Digit,49.0,1.0,30,376.0,1.0,1.0,ABA,Raw_Data_III_Digit_Paradigm_2nd_Control_Group,,
BI_C2_Digit,49.0,1.0,31,1247.0,1.0,3.0,ABA,Raw_Data_III_Digit_Paradigm_2nd_Control_Group,,
BI_C2_Digit,49.0,1.0,32,782.0,1.0,2.0,CBA,Raw_Data_III_Digit_Paradigm_2nd_Control_Group,,
BI_C2_Digit,49.0,1.0,33,487.0,1.0,1.0,CBA,Raw_Data_III_Digit_Paradigm_2nd_Control_Group,,
BI_C2_Digit,49.0,1.0,34,987.0,1.0,2.0,ABA,Raw_Data_III_Digit_Paradigm_2nd_Control_Group,,
BI_C2_Digit,49.0,1.0,35,1204.0,0.0,3.0,CBA,Raw_Data_III_Digit_Paradigm_2nd_Control_Group,,
BI_C2_Digit,49.0,1.0,36,1200.0,1.0,1.0,CBA,Raw_Data_III_Digit_Paradigm_2nd_Control_Group,,
BI_C2_Digit,49.0,1.0,37,576.0,1.0,2.0,CBA,Raw_Data_III_Digit_Paradigm_2nd_Control_Group,,
BI_C2_Digit,49.0,1.0,38,417.0,1.0,1.0,ABA,Raw_Data_III_Digit_Paradigm_2nd_Control_Group,,
BI_C2_Digit,49.0,1.0,39,616.0,0.0,3.0,CBA,Raw_Data_III_Digit_Paradigm_2nd_Control_Group,,
BI_C2_Digit,49.0,1.0,40,2284.0,1.0,1.0,ABA,Raw_Data_III_Digit_Paradigm_2nd_Control_Group,,
BI_C2_Digit,49.0,1.0,41,898.0,1.0,3.0,ABA,Raw_Data_III_Digit_Paradigm_2nd_Control_Group,,
BI_C2_Digit,49.0,1.0,42,358.0,1.0,1.0,ABA,Raw_Data_III_Digit_Paradigm_2nd_Control_Group,,
BI_C2_Digit,49.0,1.0,43,439.0,1.0,3.0,ABA,Raw_Data_III_Digit_Paradigm_2nd_Control_Group,,
BI_C2_Digit,49.0,1.0,44,364.0,1.0,1.0,ABA,Raw_Data_III_Digit_Paradigm_2nd_Control_Group,,
BI_C2_Digit,49.0,1.0,45,894.0,1.0,2.0,CBA,Raw_Data_III_Digit_Paradigm_2nd_Control_Group,,
BI_C2_Digit,49.0,1.0,46,746.0,1.0,1.0,ABA,Raw_Data_III_Digit_Paradigm_2nd_Control_Group,,
BI_C2_Digit,49.0,1.0,47,500.0,1.0,2.0,ABA,Raw_Data_III_Digit_Paradigm_2nd_Control_Group,,
BI_C2_Digit,49.0,1.0,48,944.0,1.0,3.0,CBA,Raw_Data_III_Digit_Paradigm_2nd_Control_Group,,
BI_C2_Digit,49.0,1.0,49,555.0,1.0,2.0,ABA,Raw_Data_III_Digit_Paradigm_2nd_Control_Group,,
BI_C2_Digit,49.0,1.0,50,797.0,1.0,3.0,ABA,Raw_Data_III_Digit_Paradigm_2nd_Control_Group,,
BI_C2_Digit,49.0,1.0,51,468.0,1.0,1.0,CBA,Raw_Data_III_Digit_Paradigm_2nd_Control_Group,,
BI_C2_Digit,49.0,1.0,52,801.0,1.0,3.0,ABA,Raw_Data_III_Digit_Paradigm_2nd_Control_Group,,
BI_C2_Digit,49.0,1.0,53,1146.0,1.0,2.0,CBA,Raw_Data_III_Digit_Paradigm_2nd_Control_Group,,
BI_C2_Digit,49.0,1.0,54,500.0,1.0,1.0,CBA,Raw_Data_III_Digit_Paradigm_2nd_Control_Group,,
BI_C2_Digit,49.0,1.0,55,1216.0,1.0,2.0,ABA,Raw_Data_III_Digit_Paradigm_2nd_Control_Group,,
BI_C2_Digit,49.0,1.0,56,1160.0,1.0,1.0,ABA,Raw_Data_III_Digit_Paradigm_2nd_Control_Group,,
BI_C2_Digit,49.0,1.0,57,809.0,1.0,3.0,CBA,Raw_Data_III_Digit_Paradigm_2nd_Control_Group,,
BI_C2_Digit,49.0,1.0,58,512.0,1.0,1.0,ABA,Raw_Data_III_Digit_Paradigm_2nd_Control_Group,,
BI_C2_Digit,49.0,1.0,59,996.0,1.0,2.0,CBA,Raw_Data_III_Digit_Paradigm_2nd_Control_Group,,
BI_C2_Digit,49.0,1.0,60,1508.0,1.0,3.0,CBA,Raw_Data_III_Digit_Paradigm_2nd_Control_Group,,
BI_C2_Digit,49.0,1.0,61,936.0,1.0,1.0,CBA,Raw_Data_III_Digit_Paradigm_2nd_Control_Group,,
BI_C2_Digit,49.0,1.0,62,867.0,1.0,3.0,ABA,Raw_Data_III_Digit_Paradigm_2nd_Control_Group,,
BI_C2_Digit,49.0,1.0,63,376.0,1.0,1.0,ABA,Raw_Data_III_Digit_Paradigm_2nd_Control_Group,,
BI_C2_Digit,49.0,1.0,64,720.0,0.0,2.0,CBA,Raw_Data_III_Digit_Paradigm_2nd_Control_Group,,
BI_C2_Digit,49.0,1.0,65,623.0,1.0,3.0,CBA,Raw_Data_III_Digit_Paradigm_2nd_Control_Group,,
BI_C2_Digit,49.0,1.0,66,1462.0,1.0,1.0,CBA,Raw_Data_III_Digit_Paradigm_2nd_Control_Group,,
BI_C2_Digit,49.0,1.0,67,1924.0,0.0,3.0,ABA,Raw_Data_III_Digit_Paradigm_2nd_Control_Group,,
BI_C2_Digit,49.0,1.0,68,1340.0,1.0,2.0,CBA,Raw_Data_III_Digit_Paradigm_2nd_Control_Group,,
BI_C2_Digit,49.0,1.0,69,518.0,1.0,1.0,CBA,Raw_Data_III_Digit_Paradigm_2nd_Control_Group,,
BI_C2_Digit,49.0,1.0,70,1257.0,1.0,3.0,CBA,Raw_Data_III_Digit_Paradigm_2nd_Control_Group,,
BI_C2_Digit,49.0,1.0,71,407.0,1.0,1.0,ABA,Raw_Data_III_Digit_Paradigm_2nd_Control_Group,,
BI_C2_Digit,49.0,1.0,72,366.0,1.0,2.0,CBA,Raw_Data_III_Digit_Paradigm_2nd_Control_Group,,
BI_C2_Digit,49.0,1.0,73,408.0,1.0,1.0,ABA,Raw_Data_III_Digit_Paradigm_2nd_Control_Group,,
BI_C2_Digit,49.0,1.0,74,359.0,1.0,2.0,ABA,Raw_Data_III_Digit_Paradigm_2nd_Control_Group,,
BI_C2_Digit,49.0,1.0,75,456.0,1.0,3.0,CBA,Raw_Data_III_Digit_Paradigm_2nd_Control_Group,,
BI_C2_Digit,49.0,1.0,76,1117.0,1.0,1.0,CBA,Raw_Data_III_Digit_Paradigm_2nd_Control_Group,,
BI_C2_Digit,49.0,1.0,77,792.0,1.0,2.0,CBA,Raw_Data_III_Digit_Paradigm_2nd_Control_Group,,
BI_C2_Digit,49.0,1.0,78,344.0,1.0,1.0,ABA,Raw_Data_III_Digit_Paradigm_2nd_Control_Group,,
BI_C2_Digit,49.0,1.0,79,698.0,1.0,3.0,CBA,Raw_Data_III_Digit_Paradigm_2nd_Control_Group,,
BI_C2_Digit,49.0,1.0,80,534.0,1.0,2.0,CBA,Raw_Data_III_Digit_Paradigm_2nd_Control_Group,,
BI_C2_Digit,49.0,1.0,81,1273.0,1.0,3.0,ABA,Raw_Data_III_Digit_Paradigm_2nd_Control_Group,,
BI_C2_Digit,49.0,1.0,82,717.0,1.0,2.0,ABA,Raw_Data_III_Digit_Paradigm_2nd_Control_Group,,
BI_C2_Digit,49.0,1.0,83,857.0,1.0,3.0,ABA,Raw_Data_III_Digit_Paradigm_2nd_Control_Group,,
BI_C2_Digit,49.0,1.0,84,694.0,1.0,2.0,ABA,Raw_Data_III_Digit_Paradigm_2nd_Control_Group,,
BI_C2_Digit,49.0,1.0,85,955.0,1.0,1.0,CBA,Raw_Data_III_Digit_Paradigm_2nd_Control_Group,,
BI_C2_Digit,49.0,1.0,86,684.0,1.0,2.0,ABA,Raw_Data_III_Digit_Paradigm_2nd_Control_Group,,
BI_C2_Digit,49.0,1.0,87,1777.0,0.0,3.0,CBA,Raw_Data_III_Digit_Paradigm_2nd_Control_Group,,
BI_C2_Digit,49.0,1.0,88,1014.0,1.0,1.0,CBA,Raw_Data_III_Digit_Paradigm_2nd_Control_Group,,
BI_C2_Digit,49.0,1.0,89,637.0,1.0,3.0,ABA,Raw_Data_III_Digit_Paradigm_2nd_Control_Group,,
BI_C2_Digit,49.0,1.0,90,732.0,1.0,1.0,ABA,Raw_Data_III_Digit_Paradigm_2nd_Control_Group,,
BI_C2_Digit,49.0,1.0,91,1279.0,1.0,3.0,ABA,Raw_Data_III_Digit_Paradigm_2nd_Control_Group,,
BI_C2_Digit,49.0,1.0,92,516.0,1.0,1.0,ABA,Raw_Data_III_Digit_Paradigm_2nd_Control_Group,,
BI_C2_Digit,49.0,1.0,93,1159.0,1.0,2.0,CBA,Raw_Data_III_Digit_Paradigm_2nd_Control_Group,,
BI_C2_Digit,49.0,1.0,94,457.0,1.0,1.0,ABA,Raw_Data_III_Digit_Paradigm_2nd_Control_Group,,
BI_C2_Digit,49.0,1.0,95,613.0,0.0,2.0,ABA,Raw_Data_III_Digit_Paradigm_2nd_Control_Group,,
BI_C2_Digit,49.0,1.0,96,1561.0,1.0,3.0,CBA,Raw_Data_III_Digit_Paradigm_2nd_Control_Group,,
BI_C2_Digit,49.0,1.0,97,499.0,1.0,2.0,ABA,Raw_Data_III_Digit_Paradigm_2nd_Control_Group,,
BI_C2_Digit,49.0,1.0,98,751.0,1.0,3.0,ABA,Raw_Data_III_Digit_Paradigm_2nd_Control_Group,,
BI_C2_Digit,49.0,1.0,99,1049.0,1.0,2.0,ABA,Raw_Data_III_Digit_Paradigm_2nd_Control_Group,,
BI_C2_Digit,49.0,1.0,100,1200.0,1.0,3.0,ABA,Raw_Data_III_Digit_Paradigm_2nd_Control_Group,,
BI_C2_Digit,49.0,1.0,101,831.0,1.0,2.0,ABA,Raw_Data_III_Digit_Paradigm_2nd_Control_Group,,
BI_C2_Digit,49.0,1.0,102,590.0,1.0,1.0,CBA,Raw_Data_III_Digit_Paradigm_2nd_Control_Group,,
BI_C2_Digit,49.0,1.0,103,1230.0,1.0,3.0,CBA,Raw_Data_III_Digit_Paradigm_2nd_Control_Group,,
BI_C2_Digit,49.0,1.0,104,780.0,1.0,2.0,CBA,Raw_Data_III_Digit_Paradigm_2nd_Control_Group,,
BI_C2_Digit,49.0,1.0,105,901.0,1.0,1.0,CBA,Raw_Data_III_Digit_Paradigm_2nd_Control_Group,,
BI_C2_Digit,49.0,1.0,106,961.0,1.0,3.0,CBA,Raw_Data_III_Digit_Paradigm_2nd_Control_Group,,
BI_C2_Digit,49.0,1.0,107,601.0,1.0,2.0,CBA,Raw_Data_III_Digit_Paradigm_2nd_Control_Group,,
BI_C2_Digit,49.0,1.0,108,1241.0,0.0,1.0,CBA,Raw_Data_III_Digit_Paradigm_2nd_Control_Group,,
BI_C2_Digit,49.0,1.0,109,772.0,1.0,2.0,ABA,Raw_Data_III_Digit_Paradigm_2nd_Control_Group,,
BI_C2_Digit,49.0,1.0,110,1405.0,1.0,3.0,CBA,Raw_Data_III_Digit_Paradigm_2nd_Control_Group,,
BI_C2_Digit,49.0,1.0,111,1148.0,1.0,2.0,ABA,Raw_Data_III_Digit_Paradigm_2nd_Control_Group,,
BI_C2_Digit,49.0,1.0,112,591.0,1.0,1.0,CBA,Raw_Data_III_Digit_Paradigm_2nd_Control_Group,,
BI_C2_Digit,49.0,1.0,113,686.0,1.0,3.0,CBA,Raw_Data_III_Digit_Paradigm_2nd_Control_Group,,
BI_C2_Digit,49.0,1.0,114,587.0,1.0,2.0,CBA,Raw_Data_III_Digit_Paradigm_2nd_Control_Group,,
BI_C2_Digit,49.0,1.0,115,1211.0,1.0,1.0,CBA,Raw_Data_III_Digit_Paradigm_2nd_Control_Group,,
BI_C2_Digit,49.0,1.0,116,723.0,1.0,2.0,ABA,Raw_Data_III_Digit_Paradigm_2nd_Control_Group,,
BI_C2_Digit,49.0,1.0,117,1326.0,1.0,3.0,CBA,Raw_Data_III_Digit_Paradigm_2nd_Control_Group,,
BI_C2_Digit,49.0,1.0,118,1241.0,1.0,2.0,ABA,Raw_Data_III_Digit_Paradigm_2nd_Control_Group,,
BI_C2_Digit,49.0,1.0,119,798.0,1.0,3.0,ABA,Raw_Data_III_Digit_Paradigm_2nd_Control_Group,,
BI_C2_Digit,49.0,1.0,120,422.0,1.0,2.0,ABA,Raw_Data_III_Digit_Paradigm_2nd_Control_Group,,
BI_C2_Digit,49.0,2.0,1,607.0,1.0,3.0,0.0,Raw_Data_III_Digit_Paradigm_2nd_Control_Group,,
BI_C2_Digit,49.0,2.0,2,687.0,1.0,2.0,0.0,Raw_Data_III_Digit_Paradigm_2nd_Control_Group,,
BI_C2_Digit,49.0,2.0,3,515.0,1.0,3.0,ABA,Raw_Data_III_Digit_Paradigm_2nd_Control_Group,,
BI_C2_Digit,49.0,2.0,4,358.0,1.0,2.0,ABA,Raw_Data_III_Digit_Paradigm_2nd_Control_Group,,
BI_C2_Digit,49.0,2.0,5,904.0,1.0,3.0,ABA,Raw_Data_III_Digit_Paradigm_2nd_Control_Group,,
BI_C2_Digit,49.0,2.0,6,435.0,1.0,1.0,CBA,Raw_Data_III_Digit_Paradigm_2nd_Control_Group,,
BI_C2_Digit,49.0,2.0,7,570.0,1.0,2.0,CBA,Raw_Data_III_Digit_Paradigm_2nd_Control_Group,,
BI_C2_Digit,49.0,2.0,8,691.0,1.0,1.0,ABA,Raw_Data_III_Digit_Paradigm_2nd_Control_Group,,
BI_C2_Digit,49.0,2.0,9,535.0,1.0,2.0,ABA,Raw_Data_III_Digit_Paradigm_2nd_Control_Group,,
BI_C2_Digit,49.0,2.0,10,530.0,1.0,1.0,ABA,Raw_Data_III_Digit_Paradigm_2nd_Control_Group,,
BI_C2_Digit,49.0,2.0,11,453.0,1.0,2.0,ABA,Raw_Data_III_Digit_Paradigm_2nd_Control_Group,,
BI_C2_Digit,49.0,2.0,12,987.0,1.0,3.0,CBA,Raw_Data_III_Digit_Paradigm_2nd_Control_Group,,
BI_C2_Digit,49.0,2.0,13,507.0,1.0,2.0,ABA,Raw_Data_III_Digit_Paradigm_2nd_Control_Group,,
BI_C2_Digit,49.0,2.0,14,830.0,1.0,3.0,ABA,Raw_Data_III_Digit_Paradigm_2nd_Control_Group,,
BI_C2_Digit,49.0,2.0,15,349.0,1.0,1.0,CBA,Raw_Data_III_Digit_Paradigm_2nd_Control_Group,,
BI_C2_Digit,49.0,2.0,16,503.0,1.0,3.0,ABA,Raw_Data_III_Digit_Paradigm_2nd_Control_Group,,
BI_C2_Digit,49.0,2.0,17,468.0,1.0,1.0,ABA,Raw_Data_III_Digit_Paradigm_2nd_Control_Group,,
BI_C2_Digit,49.0,2.0,18,513.0,1.0,3.0,ABA,Raw_Data_III_Digit_Paradigm_2nd_Control_Group,,
BI_C2_Digit,49.0,2.0,19,708.0,1.0,1.0,ABA,Raw_Data_III_Digit_Paradigm_2nd_Control_Group,,
BI_C2_Digit,49.0,2.0,20,687.0,1.0,3.0,ABA,Raw_Data_III_Digit_Paradigm_2nd_Control_Group,,
BI_C2_Digit,49.0,2.0,21,580.0,1.0,2.0,CBA,Raw_Data_III_Digit_Paradigm_2nd_Control_Group,,
BI_C2_Digit,49.0,2.0,22,581.0,1.0,1.0,CBA,Raw_Data_III_Digit_Paradigm_2nd_Control_Group,,
BI_C2_Digit,49.0,2.0,23,581.0,1.0,3.0,CBA,Raw_Data_III_Digit_Paradigm_2nd_Control_Group,,
BI_C2_Digit,49.0,2.0,24,662.0,1.0,2.0,CBA,Raw_Data_III_Digit_Paradigm_2nd_Control_Group,,
BI_C2_Digit,49.0,2.0,25,1332.0,0.0,3.0,ABA,Raw_Data_III_Digit_Paradigm_2nd_Control_Group,,
BI_C2_Digit,49.0,2.0,26,1074.0,1.0,1.0,CBA,Raw_Data_III_Digit_Paradigm_2nd_Control_Group,,
BI_C2_Digit,49.0,2.0,27,767.0,1.0,2.0,CBA,Raw_Data_III_Digit_Paradigm_2nd_Control_Group,,
BI_C2_Digit,49.0,2.0,28,945.0,1.0,1.0,ABA,Raw_Data_III_Digit_Paradigm_2nd_Control_Group,,
BI_C2_Digit,49.0,2.0,29,619.0,1.0,3.0,CBA,Raw_Data_III_Digit_Paradigm_2nd_Control_Group,,
BI_C2_Digit,49.0,2.0,30,1139.0,0.0,1.0,ABA,Raw_Data_III_Digit_Paradigm_2nd_Control_Group,,
BI_C2_Digit,49.0,2.0,31,425.0,1.0,2.0,CBA,Raw_Data_III_Digit_Paradigm_2nd_Control_Group,,
BI_C2_Digit,49.0,2.0,32,415.0,1.0,1.0,ABA,Raw_Data_III_Digit_Paradigm_2nd_Control_Group,,
BI_C2_Digit,49.0,2.0,33,942.0,1.0,2.0,ABA,Raw_Data_III_Digit_Paradigm_2nd_Control_Group,,
BI_C2_Digit,49.0,2.0,34,1217.0,1.0,3.0,CBA,Raw_Data_III_Digit_Paradigm_2nd_Control_Group,,
BI_C2_Digit,49.0,2.0,35,1312.0,1.0,2.0,ABA,Raw_Data_III_Digit_Paradigm_2nd_Control_Group,,
BI_C2_Digit,49.0,2.0,36,676.0,1.0,1.0,CBA,Raw_Data_III_Digit_Paradigm_2nd_Control_Group,,
BI_C2_Digit,49.0,2.0,37,449.0,1.0,2.0,ABA,Raw_Data_III_Digit_Paradigm_2nd_Control_Group,,
BI_C2_Digit,49.0,2.0,38,775.0,1.0,3.0,CBA,Raw_Data_III_Digit_Paradigm_2nd_Control_Group,,
BI_C2_Digit,49.0,2.0,39,471.0,1.0,1.0,CBA,Raw_Data_III_Digit_Paradigm_2nd_Control_Group,,
BI_C2_Digit,49.0,2.0,40,812.0,0.0,2.0,CBA,Raw_Data_III_Digit_Paradigm_2nd_Control_Group,,
BI_C2_Digit,49.0,2.0,41,608.0,0.0,3.0,CBA,Raw_Data_III_Digit_Paradigm_2nd_Control_Group,,
BI_C2_Digit,49.0,2.0,42,995.0,1.0,1.0,CBA,Raw_Data_III_Digit_Paradigm_2nd_Control_Group,,
BI_C2_Digit,49.0,2.0,43,1596.0,1.0,3.0,ABA,Raw_Data_III_Digit_Paradigm_2nd_Control_Group,,
BI_C2_Digit,49.0,2.0,44,917.0,1.0,1.0,ABA,Raw_Data_III_Digit_Paradigm_2nd_Control_Group,,
BI_C2_Digit,49.0,2.0,45,807.0,1.0,2.0,CBA,Raw_Data_III_Digit_Paradigm_2nd_Control_Group,,
BI_C2_Digit,49.0,2.0,46,1063.0,1.0,1.0,ABA,Raw_Data_III_Digit_Paradigm_2nd_Control_Group,,
BI_C2_Digit,49.0,2.0,47,981.0,0.0,3.0,CBA,Raw_Data_III_Digit_Paradigm_2nd_Control_Group,,
BI_C2_Digit,49.0,2.0,48,1026.0,1.0,2.0,CBA,Raw_Data_III_Digit_Paradigm_2nd_Control_Group,,
BI_C2_Digit,49.0,2.0,49,569.0,1.0,1.0,CBA,Raw_Data_III_Digit_Paradigm_2nd_Control_Group,,
BI_C2_Digit,49.0,2.0,50,874.0,1.0,3.0,CBA,Raw_Data_III_Digit_Paradigm_2nd_Control_Group,,
BI_C2_Digit,49.0,2.0,51,1174.0,1.0,2.0,CBA,Raw_Data_III_Digit_Paradigm_2nd_Control_Group,,
BI_C2_Digit,49.0,2.0,52,735.0,1.0,3.0,ABA,Raw_Data_III_Digit_Paradigm_2nd_Control_Group,,
BI_C2_Digit,49.0,2.0,53,770.0,0.0,1.0,CBA,Raw_Data_III_Digit_Paradigm_2nd_Control_Group,,
BI_C2_Digit,49.0,2.0,54,1047.0,1.0,2.0,CBA,Raw_Data_III_Digit_Paradigm_2nd_Control_Group,,
BI_C2_Digit,49.0,2.0,55,1094.0,1.0,3.0,CBA,Raw_Data_III_Digit_Paradigm_2nd_Control_Group,,
BI_C2_Digit,49.0,2.0,56,1289.0,1.0,2.0,ABA,Raw_Data_III_Digit_Paradigm_2nd_Control_Group,,
BI_C2_Digit,49.0,2.0,57,758.0,1.0,1.0,CBA,Raw_Data_III_Digit_Paradigm_2nd_Control_Group,,
BI_C2_Digit,49.0,2.0,58,495.0,1.0,2.0,ABA,Raw_Data_III_Digit_Paradigm_2nd_Control_Group,,
BI_C2_Digit,49.0,2.0,59,1115.0,1.0,3.0,CBA,Raw_Data_III_Digit_Paradigm_2nd_Control_Group,,
BI_C2_Digit,49.0,2.0,60,375.0,1.0,1.0,CBA,Raw_Data_III_Digit_Paradigm_2nd_Control_Group,,
BI_C2_Digit,49.0,2.0,61,296.0,1.0,2.0,CBA,Raw_Data_III_Digit_Paradigm_2nd_Control_Group,,
BI_C2_Digit,49.0,2.0,62,404.0,1.0,1.0,ABA,Raw_Data_III_Digit_Paradigm_2nd_Control_Group,,
BI_C2_Digit,49.0,2.0,63,492.0,1.0,2.0,ABA,Raw_Data_III_Digit_Paradigm_2nd_Control_Group,,
BI_C2_Digit,49.0,2.0,64,623.0,1.0,3.0,CBA,Raw_Data_III_Digit_Paradigm_2nd_Control_Group,,
BI_C2_Digit,49.0,2.0,65,1094.0,1.0,2.0,ABA,Raw_Data_III_Digit_Paradigm_2nd_Control_Group,,
BI_C2_Digit,49.0,2.0,66,442.0,1.0,3.0,ABA,Raw_Data_III_Digit_Paradigm_2nd_Control_Group,,
BI_C2_Digit,49.0,2.0,67,680.0,1.0,1.0,CBA,Raw_Data_III_Digit_Paradigm_2nd_Control_Group,,
BI_C2_Digit,49.0,2.0,68,693.0,1.0,2.0,CBA,Raw_Data_III_Digit_Paradigm_2nd_Control_Group,,
BI_C2_Digit,49.0,2.0,69,1121.0,1.0,3.0,CBA,Raw_Data_III_Digit_Paradigm_2nd_Control_Group,,
BI_C2_Digit,49.0,2.0,70,348.0,1.0,1.0,CBA,Raw_Data_III_Digit_Paradigm_2nd_Control_Group,,
BI_C2_Digit,49.0,2.0,71,717.0,1.0,2.0,CBA,Raw_Data_III_Digit_Paradigm_2nd_Control_Group,,
BI_C2_Digit,49.0,2.0,72,1097.0,1.0,1.0,ABA,Raw_Data_III_Digit_Paradigm_2nd_Control_Group,,
BI_C2_Digit,49.0,2.0,73,989.0,1.0,2.0,ABA,Raw_Data_III_Digit_Paradigm_2nd_Control_Group,,
BI_C2_Digit,49.0,2.0,74,326.0,1.0,1.0,ABA,Raw_Data_III_Digit_Paradigm_2nd_Control_Group,,
BI_C2_Digit,49.0,2.0,75,448.0,1.0,3.0,CBA,Raw_Data_III_Digit_Paradigm_2nd_Control_Group,,
BI_C2_Digit,49.0,2.0,76,654.0,1.0,1.0,ABA,Raw_Data_III_Digit_Paradigm_2nd_Control_Group,,
BI_C2_Digit,49.0,2.0,77,733.0,1.0,2.0,CBA,Raw_Data_III_Digit_Paradigm_2nd_Control_Group,,
BI_C2_Digit,49.0,2.0,78,710.0,1.0,3.0,CBA,Raw_Data_III_Digit_Paradigm_2nd_Control_Group,,
BI_C2_Digit,49.0,2.0,79,2234.0,1.0,2.0,ABA,Raw_Data_III_Digit_Paradigm_2nd_Control_Group,,
BI_C2_Digit,49.0,2.0,80,1114.0,0.0,1.0,CBA,Raw_Data_III_Digit_Paradigm_2nd_Control_Group,,
BI_C2_Digit,49.0,2.0,81,674.0,1.0,2.0,ABA,Raw_Data_III_Digit_Paradigm_2nd_Control_Group,,
BI_C2_Digit,49.0,2.0,82,895.0,1.0,1.0,ABA,Raw_Data_III_Digit_Paradigm_2nd_Control_Group,,
BI_C2_Digit,49.0,2.0,83,371.0,1.0,2.0,ABA,Raw_Data_III_Digit_Paradigm_2nd_Control_Group,,
BI_C2_Digit,49.0,2.0,84,427.0,1.0,3.0,CBA,Raw_Data_III_Digit_Paradigm_2nd_Control_Group,,
BI_C2_Digit,49.0,2.0,85,514.0,1.0,2.0,ABA,Raw_Data_III_Digit_Paradigm_2nd_Control_Group,,
BI_C2_Digit,49.0,2.0,86,357.0,1.0,3.0,ABA,Raw_Data_III_Digit_Paradigm_2nd_Control_Group,,
BI_C2_Digit,49.0,2.0,87,575.0,1.0,2.0,ABA,Raw_Data_III_Digit_Paradigm_2nd_Control_Group,,
BI_C2_Digit,49.0,2.0,88,351.0,0.0,1.0,CBA,Raw_Data_III_Digit_Paradigm_2nd_Control_Group,,
BI_C2_Digit,49.0,2.0,89,1149.0,1.0,2.0,ABA,Raw_Data_III_Digit_Paradigm_2nd_Control_Group,,
BI_C2_Digit,49.0,2.0,90,1134.0,1.0,3.0,CBA,Raw_Data_III_Digit_Paradigm_2nd_Control_Group,,
BI_C2_Digit,49.0,2.0,91,402.0,1.0,1.0,CBA,Raw_Data_III_Digit_Paradigm_2nd_Control_Group,,
BI_C2_Digit,49.0,2.0,92,434.0,1.0,3.0,ABA,Raw_Data_III_Digit_Paradigm_2nd_Control_Group,,
BI_C2_Digit,49.0,2.0,93,424.0,1.0,1.0,ABA,Raw_Data_III_Digit_Paradigm_2nd_Control_Group,,
BI_C2_Digit,49.0,2.0,94,847.0,1.0,3.0,ABA,Raw_Data_III_Digit_Paradigm_2nd_Control_Group,,
BI_C2_Digit,49.0,2.0,95,861.0,1.0,2.0,CBA,Raw_Data_III_Digit_Paradigm_2nd_Control_Group,,
BI_C2_Digit,49.0,2.0,96,723.0,1.0,1.0,CBA,Raw_Data_III_Digit_Paradigm_2nd_Control_Group,,
BI_C2_Digit,49.0,2.0,97,525.0,1.0,2.0,ABA,Raw_Data_III_Digit_Paradigm_2nd_Control_Group,,
BI_C2_Digit,49.0,2.0,98,704.0,1.0,3.0,CBA,Raw_Data_III_Digit_Paradigm_2nd_Control_Group,,
BI_C2_Digit,49.0,2.0,99,1204.0,1.0,2.0,ABA,Raw_Data_III_Digit_Paradigm_2nd_Control_Group,,
BI_C2_Digit,49.0,2.0,100,2188.0,0.0,3.0,ABA,Raw_Data_III_Digit_Paradigm_2nd_Control_Group,,
BI_C2_Digit,49.0,2.0,101,1049.0,1.0,1.0,CBA,Raw_Data_III_Digit_Paradigm_2nd_Control_Group,,
BI_C2_Digit,49.0,2.0,102,367.0,1.0,2.0,CBA,Raw_Data_III_Digit_Paradigm_2nd_Control_Group,,
BI_C2_Digit,49.0,2.0,103,344.0,1.0,1.0,ABA,Raw_Data_III_Digit_Paradigm_2nd_Control_Group,,
BI_C2_Digit,49.0,2.0,104,442.0,1.0,3.0,CBA,Raw_Data_III_Digit_Paradigm_2nd_Control_Group,,
BI_C2_Digit,49.0,2.0,105,880.0,1.0,2.0,CBA,Raw_Data_III_Digit_Paradigm_2nd_Control_Group,,
BI_C2_Digit,49.0,2.0,106,701.0,1.0,1.0,CBA,Raw_Data_III_Digit_Paradigm_2nd_Control_Group,,
BI_C2_Digit,49.0,2.0,107,689.0,1.0,3.0,CBA,Raw_Data_III_Digit_Paradigm_2nd_Control_Group,,
BI_C2_Digit,49.0,2.0,108,909.0,1.0,1.0,ABA,Raw_Data_III_Digit_Paradigm_2nd_Control_Group,,
BI_C2_Digit,49.0,2.0,109,1137.0,0.0,3.0,ABA,Raw_Data_III_Digit_Paradigm_2nd_Control_Group,,
BI_C2_Digit,49.0,2.0,110,1046.0,1.0,2.0,CBA,Raw_Data_III_Digit_Paradigm_2nd_Control_Group,,
BI_C2_Digit,49.0,2.0,111,813.0,1.0,3.0,ABA,Raw_Data_III_Digit_Paradigm_2nd_Control_Group,,
BI_C2_Digit,49.0,2.0,112,380.0,1.0,1.0,CBA,Raw_Data_III_Digit_Paradigm_2nd_Control_Group,,
BI_C2_Digit,49.0,2.0,113,973.0,1.0,3.0,ABA,Raw_Data_III_Digit_Paradigm_2nd_Control_Group,,
BI_C2_Digit,49.0,2.0,114,1022.0,1.0,1.0,ABA,Raw_Data_III_Digit_Paradigm_2nd_Control_Group,,
BI_C2_Digit,49.0,2.0,115,1141.0,1.0,3.0,ABA,Raw_Data_III_Digit_Paradigm_2nd_Control_Group,,
BI_C2_Digit,49.0,2.0,116,438.0,1.0,1.0,ABA,Raw_Data_III_Digit_Paradigm_2nd_Control_Group,,
BI_C2_Digit,49.0,2.0,117,629.0,1.0,3.0,ABA,Raw_Data_III_Digit_Paradigm_2nd_Control_Group,,
BI_C2_Digit,49.0,2.0,118,475.0,1.0,1.0,ABA,Raw_Data_III_Digit_Paradigm_2nd_Control_Group,,
BI_C2_Digit,49.0,2.0,119,984.0,1.0,3.0,ABA,Raw_Data_III_Digit_Paradigm_2nd_Control_Group,,
BI_C2_Digit,49.0,2.0,120,641.0,0.0,2.0,CBA,Raw_Data_III_Digit_Paradigm_2nd_Control_Group,,
BI_C2_Digit,49.0,3.0,1,410.0,0.0,3.0,0.0,Raw_Data_III_Digit_Paradigm_2nd_Control_Group,,
BI_C2_Digit,49.0,3.0,2,454.0,1.0,2.0,0.0,Raw_Data_III_Digit_Paradigm_2nd_Control_Group,,
BI_C2_Digit,49.0,3.0,3,1476.0,1.0,3.0,ABA,Raw_Data_III_Digit_Paradigm_2nd_Control_Group,,
BI_C2_Digit,49.0,3.0,4,801.0,1.0,1.0,CBA,Raw_Data_III_Digit_Paradigm_2nd_Control_Group,,
BI_C2_Digit,49.0,3.0,5,970.0,1.0,3.0,ABA,Raw_Data_III_Digit_Paradigm_2nd_Control_Group,,
BI_C2_Digit,49.0,3.0,6,1123.0,1.0,2.0,CBA,Raw_Data_III_Digit_Paradigm_2nd_Control_Group,,
BI_C2_Digit,49.0,3.0,7,813.0,1.0,1.0,CBA,Raw_Data_III_Digit_Paradigm_2nd_Control_Group,,
BI_C2_Digit,49.0,3.0,8,805.0,1.0,3.0,CBA,Raw_Data_III_Digit_Paradigm_2nd_Control_Group,,
BI_C2_Digit,49.0,3.0,9,453.0,1.0,1.0,ABA,Raw_Data_III_Digit_Paradigm_2nd_Control_Group,,
BI_C2_Digit,49.0,3.0,10,491.0,1.0,3.0,ABA,Raw_Data_III_Digit_Paradigm_2nd_Control_Group,,
BI_C2_Digit,49.0,3.0,11,423.0,1.0,2.0,CBA,Raw_Data_III_Digit_Paradigm_2nd_Control_Group,,
BI_C2_Digit,49.0,3.0,12,701.0,1.0,1.0,CBA,Raw_Data_III_Digit_Paradigm_2nd_Control_Group,,
BI_C2_Digit,49.0,3.0,13,354.0,1.0,3.0,CBA,Raw_Data_III_Digit_Paradigm_2nd_Control_Group,,
BI_C2_Digit,49.0,3.0,14,427.0,1.0,2.0,CBA,Raw_Data_III_Digit_Paradigm_2nd_Control_Group,,
BI_C2_Digit,49.0,3.0,15,1073.0,1.0,3.0,ABA,Raw_Data_III_Digit_Paradigm_2nd_Control_Group,,
BI_C2_Digit,49.0,3.0,16,1006.0,1.0,1.0,CBA,Raw_Data_III_Digit_Paradigm_2nd_Control_Group,,
BI_C2_Digit,49.0,3.0,17,1062.0,0.0,3.0,ABA,Raw_Data_III_Digit_Paradigm_2nd_Control_Group,,
BI_C2_Digit,49.0,3.0,18,360.0,1.0,1.0,ABA,Raw_Data_III_Digit_Paradigm_2nd_Control_Group,,
BI_C2_Digit,49.0,3.0,19,689.0,1.0,2.0,CBA,Raw_Data_III_Digit_Paradigm_2nd_Control_Group,,
BI_C2_Digit,49.0,3.0,20,517.0,1.0,3.0,CBA,Raw_Data_III_Digit_Paradigm_2nd_Control_Group,,
BI_C2_Digit,49.0,3.0,21,1048.0,1.0,1.0,CBA,Raw_Data_III_Digit_Paradigm_2nd_Control_Group,,
BI_C2_Digit,49.0,3.0,22,846.0,0.0,3.0,ABA,Raw_Data_III_Digit_Paradigm_2nd_Control_Group,,
BI_C2_Digit,49.0,3.0,23,1337.0,1.0,1.0,ABA,Raw_Data_III_Digit_Paradigm_2nd_Control_Group,,
BI_C2_Digit,49.0,3.0,24,556.0,1.0,2.0,CBA,Raw_Data_III_Digit_Paradigm_2nd_Control_Group,,
BI_C2_Digit,49.0,3.0,25,1022.0,1.0,1.0,ABA,Raw_Data_III_Digit_Paradigm_2nd_Control_Group,,
BI_C2_Digit,49.0,3.0,26,740.0,1.0,2.0,ABA,Raw_Data_III_Digit_Paradigm_2nd_Control_Group,,
BI_C2_Digit,49.0,3.0,27,542.0,1.0,3.0,CBA,Raw_Data_III_Digit_Paradigm_2nd_Control_Group,,
BI_C2_Digit,49.0,3.0,28,416.0,1.0,1.0,CBA,Raw_Data_III_Digit_Paradigm_2nd_Control_Group,,
BI_C2_Digit,49.0,3.0,29,1367.0,1.0,3.0,ABA,Raw_Data_III_Digit_Paradigm_2nd_Control_Group,,
BI_C2_Digit,49.0,3.0,30,1089.0,1.0,2.0,CBA,Raw_Data_III_Digit_Paradigm_2nd_Control_Group,,
BI_C2_Digit,49.0,3.0,31,454.0,1.0,1.0,CBA,Raw_Data_III_Digit_Paradigm_2nd_Control_Group,,
BI_C2_Digit,49.0,3.0,32,572.0,1.0,2.0,ABA,Raw_Data_III_Digit_Paradigm_2nd_Control_Group,,
BI_C2_Digit,49.0,3.0,33,484.0,1.0,3.0,CBA,Raw_Data_III_Digit_Paradigm_2nd_Control_Group,,
BI_C2_Digit,49.0,3.0,34,480.0,1.0,1.0,CBA,Raw_Data_III_Digit_Paradigm_2nd_Control_Group,,
BI_C2_Digit,49.0,3.0,35,741.0,1.0,3.0,ABA,Raw_Data_III_Digit_Paradigm_2nd_Control_Group,,
BI_C2_Digit,49.0,3.0,36,1303.0,1.0,2.0,CBA,Raw_Data_III_Digit_Paradigm_2nd_Control_Group,,
BI_C2_Digit,49.0,3.0,37,612.0,1.0,1.0,CBA,Raw_Data_III_Digit_Paradigm_2nd_Control_Group,,
BI_C2_Digit,49.0,3.0,38,1411.0,1.0,2.0,ABA,Raw_Data_III_Digit_Paradigm_2nd_Control_Group,,
BI_C2_Digit,49.0,3.0,39,1339.0,1.0,3.0,CBA,Raw_Data_III_Digit_Paradigm_2nd_Control_Group,,
BI_C2_Digit,49.0,3.0,40,581.0,1.0,2.0,ABA,Raw_Data_III_Digit_Paradigm_2nd_Control_Group,,
BI_C2_Digit,49.0,3.0,41,358.0,1.0,1.0,CBA,Raw_Data_III_Digit_Paradigm_2nd_Control_Group,,
BI_C2_Digit,49.0,3.0,42,855.0,1.0,2.0,ABA,Raw_Data_III_Digit_Paradigm_2nd_Control_Group,,
BI_C2_Digit,49.0,3.0,43,597.0,1.0,1.0,ABA,Raw_Data_III_Digit_Paradigm_2nd_Control_Group,,
BI_C2_Digit,49.0,3.0,44,949.0,1.0,3.0,CBA,Raw_Data_III_Digit_Paradigm_2nd_Control_Group,,
BI_C2_Digit,49.0,3.0,45,1095.0,1.0,2.0,CBA,Raw_Data_III_Digit_Paradigm_2nd_Control_Group,,
BI_C2_Digit,49.0,3.0,46,1098.0,1.0,1.0,CBA,Raw_Data_III_Digit_Paradigm_2nd_Control_Group,,
BI_C2_Digit,49.0,3.0,47,847.0,1.0,2.0,ABA,Raw_Data_III_Digit_Paradigm_2nd_Control_Group,,
BI_C2_Digit,49.0,3.0,48,1285.0,1.0,3.0,CBA,Raw_Data_III_Digit_Paradigm_2nd_Control_Group,,
BI_C2_Digit,49.0,3.0,49,1042.0,1.0,2.0,ABA,Raw_Data_III_Digit_Paradigm_2nd_Control_Group,,
BI_C2_Digit,49.0,3.0,50,585.0,1.0,3.0,ABA,Raw_Data_III_Digit_Paradigm_2nd_Control_Group,,
BI_C2_Digit,49.0,3.0,51,585.0,1.0,2.0,ABA,Raw_Data_III_Digit_Paradigm_2nd_Control_Group,,
BI_C2_Digit,49.0,3.0,52,474.0,1.0,1.0,CBA,Raw_Data_III_Digit_Paradigm_2nd_Control_Group,,
BI_C2_Digit,49.0,3.0,53,1110.0,1.0,3.0,CBA,Raw_Data_III_Digit_Paradigm_2nd_Control_Group,,
BI_C2_Digit,49.0,3.0,54,522.0,1.0,2.0,CBA,Raw_Data_III_Digit_Paradigm_2nd_Control_Group,,
BI_C2_Digit,49.0,3.0,55,1004.0,1.0,3.0,ABA,Raw_Data_III_Digit_Paradigm_2nd_Control_Group,,
BI_C2_Digit,49.0,3.0,56,676.0,1.0,2.0,ABA,Raw_Data_III_Digit_Paradigm_2nd_Control_Group,,
BI_C2_Digit,49.0,3.0,57,441.0,0.0,3.0,ABA,Raw_Data_III_Digit_Paradigm_2nd_Control_Group,,
BI_C2_Digit,49.0,3.0,58,883.0,1.0,2.0,ABA,Raw_Data_III_Digit_Paradigm_2nd_Control_Group,,
BI_C2_Digit,49.0,3.0,59,903.0,1.0,3.0,ABA,Raw_Data_III_Digit_Paradigm_2nd_Control_Group,,
BI_C2_Digit,49.0,3.0,60,780.0,1.0,2.0,ABA,Raw_Data_III_Digit_Paradigm_2nd_Control_Group,,
BI_C2_Digit,49.0,3.0,61,789.0,1.0,3.0,ABA,Raw_Data_III_Digit_Paradigm_2nd_Control_Group,,
BI_C2_Digit,49.0,3.0,62,773.0,1.0,1.0,CBA,Raw_Data_III_Digit_Paradigm_2nd_Control_Group,,
BI_C2_Digit,49.0,3.0,63,654.0,1.0,3.0,ABA,Raw_Data_III_Digit_Paradigm_2nd_Control_Group,,
BI_C2_Digit,49.0,3.0,64,612.0,1.0,1.0,ABA,Raw_Data_III_Digit_Paradigm_2nd_Control_Group,,
BI_C2_Digit,49.0,3.0,65,595.0,1.0,2.0,CBA,Raw_Data_III_Digit_Paradigm_2nd_Control_Group,,
BI_C2_Digit,49.0,3.0,66,778.0,1.0,1.0,ABA,Raw_Data_III_Digit_Paradigm_2nd_Control_Group,,
BI_C2_Digit,49.0,3.0,67,715.0,1.0,2.0,ABA,Raw_Data_III_Digit_Paradigm_2nd_Control_Group,,
BI_C2_Digit,49.0,3.0,68,655.0,1.0,3.0,CBA,Raw_Data_III_Digit_Paradigm_2nd_Control_Group,,
BI_C2_Digit,49.0,3.0,69,492.0,1.0,1.0,CBA,Raw_Data_III_Digit_Paradigm_2nd_Control_Group,,
BI_C2_Digit,49.0,3.0,70,777.0,1.0,2.0,CBA,Raw_Data_III_Digit_Paradigm_2nd_Control_Group,,
BI_C2_Digit,49.0,3.0,71,1417.0,1.0,3.0,CBA,Raw_Data_III_Digit_Paradigm_2nd_Control_Group,,
BI_C2_Digit,49.0,3.0,72,1192.0,1.0,2.0,ABA,Raw_Data_III_Digit_Paradigm_2nd_Control_Group,,
BI_C2_Digit,49.0,3.0,73,1553.0,1.0,3.0,ABA,Raw_Data_III_Digit_Paradigm_2nd_Control_Group,,
BI_C2_Digit,49.0,3.0,74,931.0,1.0,1.0,CBA,Raw_Data_III_Digit_Paradigm_2nd_Control_Group,,
BI_C2_Digit,49.0,3.0,75,1646.0,1.0,2.0,CBA,Raw_Data_III_Digit_Paradigm_2nd_Control_Group,,
BI_C2_Digit,49.0,3.0,76,765.0,1.0,1.0,ABA,Raw_Data_III_Digit_Paradigm_2nd_Control_Group,,
BI_C2_Digit,49.0,3.0,77,567.0,1.0,2.0,ABA,Raw_Data_III_Digit_Paradigm_2nd_Control_Group,,
BI_C2_Digit,49.0,3.0,78,639.0,1.0,3.0,CBA,Raw_Data_III_Digit_Paradigm_2nd_Control_Group,,
BI_C2_Digit,49.0,3.0,79,877.0,1.0,1.0,CBA,Raw_Data_III_Digit_Paradigm_2nd_Control_Group,,
BI_C2_Digit,49.0,3.0,80,650.0,1.0,2.0,CBA,Raw_Data_III_Digit_Paradigm_2nd_Control_Group,,
BI_C2_Digit,49.0,3.0,81,800.0,1.0,1.0,ABA,Raw_Data_III_Digit_Paradigm_2nd_Control_Group,,
BI_C2_Digit,49.0,3.0,82,553.0,1.0,3.0,CBA,Raw_Data_III_Digit_Paradigm_2nd_Control_Group,,
BI_C2_Digit,49.0,3.0,83,723.0,0.0,2.0,CBA,Raw_Data_III_Digit_Paradigm_2nd_Control_Group,,
BI_C2_Digit,49.0,3.0,84,514.0,1.0,1.0,CBA,Raw_Data_III_Digit_Paradigm_2nd_Control_Group,,
BI_C2_Digit,49.0,3.0,85,1148.0,1.0,3.0,CBA,Raw_Data_III_Digit_Paradigm_2nd_Control_Group,,
BI_C2_Digit,49.0,3.0,86,1167.0,1.0,1.0,ABA,Raw_Data_III_Digit_Paradigm_2nd_Control_Group,,
BI_C2_Digit,49.0,3.0,87,1345.0,1.0,3.0,ABA,Raw_Data_III_Digit_Paradigm_2nd_Control_Group,,
BI_C2_Digit,49.0,3.0,88,611.0,1.0,1.0,ABA,Raw_Data_III_Digit_Paradigm_2nd_Control_Group,,
BI_C2_Digit,49.0,3.0,89,379.0,1.0,3.0,ABA,Raw_Data_III_Digit_Paradigm_2nd_Control_Group,,
BI_C2_Digit,49.0,3.0,90,395.0,1.0,2.0,CBA,Raw_Data_III_Digit_Paradigm_2nd_Control_Group,,
BI_C2_Digit,49.0,3.0,91,698.0,1.0,3.0,ABA,Raw_Data_III_Digit_Paradigm_2nd_Control_Group,,
BI_C2_Digit,49.0,3.0,92,815.0,0.0,2.0,ABA,Raw_Data_III_Digit_Paradigm_2nd_Control_Group,,
BI_C2_Digit,49.0,3.0,93,306.0,1.0,1.0,CBA,Raw_Data_III_Digit_Paradigm_2nd_Control_Group,,
BI_C2_Digit,49.0,3.0,94,822.0,1.0,3.0,CBA,Raw_Data_III_Digit_Paradigm_2nd_Control_Group,,
BI_C2_Digit,49.0,3.0,95,1069.0,1.0,2.0,CBA,Raw_Data_III_Digit_Paradigm_2nd_Control_Group,,
BI_C2_Digit,49.0,3.0,96,2010.0,1.0,3.0,ABA,Raw_Data_III_Digit_Paradigm_2nd_Control_Group,,
BI_C2_Digit,49.0,3.0,97,754.0,1.0,1.0,CBA,Raw_Data_III_Digit_Paradigm_2nd_Control_Group,,
BI_C2_Digit,49.0,3.0,98,891.0,1.0,2.0,CBA,Raw_Data_III_Digit_Paradigm_2nd_Control_Group,,
BI_C2_Digit,49.0,3.0,99,768.0,1.0,1.0,ABA,Raw_Data_III_Digit_Paradigm_2nd_Control_Group,,
BI_C2_Digit,49.0,3.0,100,1137.0,1.0,3.0,CBA,Raw_Data_III_Digit_Paradigm_2nd_Control_Group,,
BI_C2_Digit,49.0,3.0,101,916.0,1.0,1.0,ABA,Raw_Data_III_Digit_Paradigm_2nd_Control_Group,,
BI_C2_Digit,49.0,3.0,102,1704.0,1.0,3.0,ABA,Raw_Data_III_Digit_Paradigm_2nd_Control_Group,,
BI_C2_Digit,49.0,3.0,103,836.0,1.0,2.0,CBA,Raw_Data_III_Digit_Paradigm_2nd_Control_Group,,
BI_C2_Digit,49.0,3.0,104,683.0,1.0,1.0,CBA,Raw_Data_III_Digit_Paradigm_2nd_Control_Group,,
BI_C2_Digit,49.0,3.0,105,959.0,1.0,2.0,ABA,Raw_Data_III_Digit_Paradigm_2nd_Control_Group,,
BI_C2_Digit,49.0,3.0,106,401.0,1.0,1.0,ABA,Raw_Data_III_Digit_Paradigm_2nd_Control_Group,,
BI_C2_Digit,49.0,3.0,107,857.0,1.0,3.0,CBA,Raw_Data_III_Digit_Paradigm_2nd_Control_Group,,
BI_C2_Digit,49.0,3.0,108,527.0,1.0,1.0,ABA,Raw_Data_III_Digit_Paradigm_2nd_Control_Group,,
BI_C2_Digit,49.0,3.0,109,577.0,1.0,3.0,ABA,Raw_Data_III_Digit_Paradigm_2nd_Control_Group,,
BI_C2_Digit,49.0,3.0,110,409.0,1.0,2.0,CBA,Raw_Data_III_Digit_Paradigm_2nd_Control_Group,,
BI_C2_Digit,49.0,3.0,111,441.0,1.0,1.0,CBA,Raw_Data_III_Digit_Paradigm_2nd_Control_Group,,
BI_C2_Digit,49.0,3.0,112,503.0,1.0,3.0,CBA,Raw_Data_III_Digit_Paradigm_2nd_Control_Group,,
BI_C2_Digit,49.0,3.0,113,611.0,1.0,1.0,ABA,Raw_Data_III_Digit_Paradigm_2nd_Control_Group,,
BI_C2_Digit,49.0,3.0,114,1098.0,1.0,2.0,CBA,Raw_Data_III_Digit_Paradigm_2nd_Control_Group,,
BI_C2_Digit,49.0,3.0,115,359.0,1.0,1.0,ABA,Raw_Data_III_Digit_Paradigm_2nd_Control_Group,,
BI_C2_Digit,49.0,3.0,116,440.0,1.0,2.0,ABA,Raw_Data_III_Digit_Paradigm_2nd_Control_Group,,
BI_C2_Digit,49.0,3.0,117,469.0,1.0,1.0,ABA,Raw_Data_III_Digit_Paradigm_2nd_Control_Group,,
BI_C2_Digit,49.0,3.0,118,658.0,1.0,2.0,ABA,Raw_Data_III_Digit_Paradigm_2nd_Control_Group,,
BI_C2_Digit,49.0,3.0,119,464.0,1.0,1.0,ABA,Raw_Data_III_Digit_Paradigm_2nd_Control_Group,,
BI_C2_Digit,49.0,3.0,120,421.0,1.0,2.0,ABA,Raw_Data_III_Digit_Paradigm_2nd_Control_Group,,
BI_C2_Digit,49.0,4.0,1,1484.0,1.0,3.0,0.0,Raw_Data_III_Digit_Paradigm_2nd_Control_Group,,
BI_C2_Digit,49.0,4.0,2,1026.0,1.0,2.0,0.0,Raw_Data_III_Digit_Paradigm_2nd_Control_Group,,
BI_C2_Digit,49.0,4.0,3,744.0,1.0,3.0,ABA,Raw_Data_III_Digit_Paradigm_2nd_Control_Group,,
BI_C2_Digit,49.0,4.0,4,498.0,1.0,2.0,ABA,Raw_Data_III_Digit_Paradigm_2nd_Control_Group,,
BI_C2_Digit,49.0,4.0,5,430.0,1.0,3.0,ABA,Raw_Data_III_Digit_Paradigm_2nd_Control_Group,,
BI_C2_Digit,49.0,4.0,6,589.0,1.0,2.0,ABA,Raw_Data_III_Digit_Paradigm_2nd_Control_Group,,
BI_C2_Digit,49.0,4.0,7,565.0,1.0,3.0,ABA,Raw_Data_III_Digit_Paradigm_2nd_Control_Group,,
BI_C2_Digit,49.0,4.0,8,966.0,1.0,2.0,ABA,Raw_Data_III_Digit_Paradigm_2nd_Control_Group,,
BI_C2_Digit,49.0,4.0,9,440.0,1.0,1.0,CBA,Raw_Data_III_Digit_Paradigm_2nd_Control_Group,,
BI_C2_Digit,49.0,4.0,10,629.0,1.0,2.0,ABA,Raw_Data_III_Digit_Paradigm_2nd_Control_Group,,
BI_C2_Digit,49.0,4.0,11,796.0,0.0,1.0,ABA,Raw_Data_III_Digit_Paradigm_2nd_Control_Group,,
BI_C2_Digit,49.0,4.0,12,1024.0,1.0,2.0,ABA,Raw_Data_III_Digit_Paradigm_2nd_Control_Group,,
BI_C2_Digit,49.0,4.0,13,1223.0,1.0,1.0,ABA,Raw_Data_III_Digit_Paradigm_2nd_Control_Group,,
BI_C2_Digit,49.0,4.0,14,1175.0,1.0,3.0,CBA,Raw_Data_III_Digit_Paradigm_2nd_Control_Group,,
BI_C2_Digit,49.0,4.0,15,480.0,1.0,1.0,ABA,Raw_Data_III_Digit_Paradigm_2nd_Control_Group,,
BI_C2_Digit,49.0,4.0,16,1211.0,1.0,3.0,ABA,Raw_Data_III_Digit_Paradigm_2nd_Control_Group,,
BI_C2_Digit,49.0,4.0,17,891.0,1.0,2.0,CBA,Raw_Data_III_Digit_Paradigm_2nd_Control_Group,,
BI_C2_Digit,49.0,4.0,18,904.0,1.0,1.0,CBA,Raw_Data_III_Digit_Paradigm_2nd_Control_Group,,
BI_C2_Digit,49.0,4.0,19,1412.0,1.0,3.0,CBA,Raw_Data_III_Digit_Paradigm_2nd_Control_Group,,
BI_C2_Digit,49.0,4.0,20,772.0,0.0,2.0,CBA,Raw_Data_III_Digit_Paradigm_2nd_Control_Group,,
BI_C2_Digit,49.0,4.0,21,561.0,1.0,1.0,CBA,Raw_Data_III_Digit_Paradigm_2nd_Control_Group,,
BI_C2_Digit,49.0,4.0,22,1473.0,0.0,3.0,CBA,Raw_Data_III_Digit_Paradigm_2nd_Control_Group,,
BI_C2_Digit,49.0,4.0,23,659.0,1.0,2.0,CBA,Raw_Data_III_Digit_Paradigm_2nd_Control_Group,,
BI_C2_Digit,49.0,4.0,24,648.0,1.0,3.0,ABA,Raw_Data_III_Digit_Paradigm_2nd_Control_Group,,
BI_C2_Digit,49.0,4.0,25,567.0,1.0,2.0,ABA,Raw_Data_III_Digit_Paradigm_2nd_Control_Group,,
BI_C2_Digit,49.0,4.0,26,344.0,1.0,1.0,CBA,Raw_Data_III_Digit_Paradigm_2nd_Control_Group,,
BI_C2_Digit,49.0,4.0,27,746.0,1.0,3.0,CBA,Raw_Data_III_Digit_Paradigm_2nd_Control_Group,,
BI_C2_Digit,49.0,4.0,28,508.0,1.0,2.0,CBA,Raw_Data_III_Digit_Paradigm_2nd_Control_Group,,
BI_C2_Digit,49.0,4.0,29,1375.0,1.0,3.0,ABA,Raw_Data_III_Digit_Paradigm_2nd_Control_Group,,
BI_C2_Digit,49.0,4.0,30,376.0,1.0,1.0,CBA,Raw_Data_III_Digit_Paradigm_2nd_Control_Group,,
BI_C2_Digit,49.0,4.0,31,1321.0,1.0,3.0,ABA,Raw_Data_III_Digit_Paradigm_2nd_Control_Group,,
BI_C2_Digit,49.0,4.0,32,548.0,1.0,1.0,ABA,Raw_Data_III_Digit_Paradigm_2nd_Control_Group,,
BI_C2_Digit,49.0,4.0,33,1062.0,1.0,2.0,CBA,Raw_Data_III_Digit_Paradigm_2nd_Control_Group,,
BI_C2_Digit,49.0,4.0,34,1428.0,0.0,3.0,CBA,Raw_Data_III_Digit_Paradigm_2nd_Control_Group,,
BI_C2_Digit,49.0,4.0,35,702.0,1.0,1.0,CBA,Raw_Data_III_Digit_Paradigm_2nd_Control_Group,,
BI_C2_Digit,49.0,4.0,36,1234.0,1.0,2.0,CBA,Raw_Data_III_Digit_Paradigm_2nd_Control_Group,,
BI_C2_Digit,49.0,4.0,37,1650.0,1.0,3.0,CBA,Raw_Data_III_Digit_Paradigm_2nd_Control_Group,,
BI_C2_Digit,49.0,4.0,38,768.0,1.0,1.0,CBA,Raw_Data_III_Digit_Paradigm_2nd_Control_Group,,
BI_C2_Digit,49.0,4.0,39,810.0,1.0,2.0,CBA,Raw_Data_III_Digit_Paradigm_2nd_Control_Group,,
BI_C2_Digit,49.0,4.0,40,841.0,1.0,1.0,ABA,Raw_Data_III_Digit_Paradigm_2nd_Control_Group,,
BI_C2_Digit,49.0,4.0,41,599.0,1.0,2.0,ABA,Raw_Data_III_Digit_Paradigm_2nd_Control_Group,,
BI_C2_Digit,49.0,4.0,42,623.0,1.0,3.0,CBA,Raw_Data_III_Digit_Paradigm_2nd_Control_Group,,
BI_C2_Digit,49.0,4.0,43,550.0,1.0,1.0,CBA,Raw_Data_III_Digit_Paradigm_2nd_Control_Group,,
BI_C2_Digit,49.0,4.0,44,1160.0,1.0,2.0,CBA,Raw_Data_III_Digit_Paradigm_2nd_Control_Group,,
BI_C2_Digit,49.0,4.0,45,490.0,1.0,1.0,ABA,Raw_Data_III_Digit_Paradigm_2nd_Control_Group,,
BI_C2_Digit,49.0,4.0,46,1118.0,1.0,3.0,CBA,Raw_Data_III_Digit_Paradigm_2nd_Control_Group,,
BI_C2_Digit,49.0,4.0,47,569.0,1.0,1.0,ABA,Raw_Data_III_Digit_Paradigm_2nd_Control_Group,,
BI_C2_Digit,49.0,4.0,48,682.0,1.0,3.0,ABA,Raw_Data_III_Digit_Paradigm_2nd_Control_Group,,
BI_C2_Digit,49.0,4.0,49,487.0,1.0,1.0,ABA,Raw_Data_III_Digit_Paradigm_2nd_Control_Group,,
BI_C2_Digit,49.0,4.0,50,995.0,1.0,3.0,ABA,Raw_Data_III_Digit_Paradigm_2nd_Control_Group,,
BI_C2_Digit,49.0,4.0,51,564.0,1.0,2.0,CBA,Raw_Data_III_Digit_Paradigm_2nd_Control_Group,,
BI_C2_Digit,49.0,4.0,52,933.0,1.0,1.0,CBA,Raw_Data_III_Digit_Paradigm_2nd_Control_Group,,
BI_C2_Digit,49.0,4.0,53,544.0,1.0,2.0,ABA,Raw_Data_III_Digit_Paradigm_2nd_Control_Group,,
BI_C2_Digit,49.0,4.0,54,481.0,1.0,3.0,CBA,Raw_Data_III_Digit_Paradigm_2nd_Control_Group,,
BI_C2_Digit,49.0,4.0,55,822.0,1.0,2.0,ABA,Raw_Data_III_Digit_Paradigm_2nd_Control_Group,,
BI_C2_Digit,49.0,4.0,56,589.0,1.0,1.0,CBA,Raw_Data_III_Digit_Paradigm_2nd_Control_Group,,
BI_C2_Digit,49.0,4.0,57,901.0,1.0,2.0,ABA,Raw_Data_III_Digit_Paradigm_2nd_Control_Group,,
BI_C2_Digit,49.0,4.0,58,1041.0,1.0,1.0,ABA,Raw_Data_III_Digit_Paradigm_2nd_Control_Group,,
BI_C2_Digit,49.0,4.0,59,1168.0,1.0,2.0,ABA,Raw_Data_III_Digit_Paradigm_2nd_Control_Group,,
BI_C2_Digit,49.0,4.0,60,1346.0,1.0,1.0,ABA,Raw_Data_III_Digit_Paradigm_2nd_Control_Group,,
BI_C2_Digit,49.0,4.0,61,883.0,1.0,2.0,ABA,Raw_Data_III_Digit_Paradigm_2nd_Control_Group,,
BI_C2_Digit,49.0,4.0,62,456.0,1.0,1.0,ABA,Raw_Data_III_Digit_Paradigm_2nd_Control_Group,,
BI_C2_Digit,49.0,4.0,63,1878.0,1.0,3.0,CBA,Raw_Data_III_Digit_Paradigm_2nd_Control_Group,,
BI_C2_Digit,49.0,4.0,64,875.0,1.0,2.0,CBA,Raw_Data_III_Digit_Paradigm_2nd_Control_Group,,
BI_C2_Digit,49.0,4.0,65,944.0,1.0,1.0,CBA,Raw_Data_III_Digit_Paradigm_2nd_Control_Group,,
BI_C2_Digit,49.0,4.0,66,778.0,1.0,2.0,ABA,Raw_Data_III_Digit_Paradigm_2nd_Control_Group,,
BI_C2_Digit,49.0,4.0,67,1026.0,0.0,1.0,ABA,Raw_Data_III_Digit_Paradigm_2nd_Control_Group,,
BI_C2_Digit,49.0,4.0,68,1358.0,1.0,3.0,CBA,Raw_Data_III_Digit_Paradigm_2nd_Control_Group,,
BI_C2_Digit,49.0,4.0,69,1047.0,1.0,2.0,CBA,Raw_Data_III_Digit_Paradigm_2nd_Control_Group,,
BI_C2_Digit,49.0,4.0,70,718.0,1.0,1.0,CBA,Raw_Data_III_Digit_Paradigm_2nd_Control_Group,,
BI_C2_Digit,49.0,4.0,71,1369.0,1.0,3.0,CBA,Raw_Data_III_Digit_Paradigm_2nd_Control_Group,,
BI_C2_Digit,49.0,4.0,72,1147.0,1.0,2.0,CBA,Raw_Data_III_Digit_Paradigm_2nd_Control_Group,,
BI_C2_Digit,49.0,4.0,73,773.0,1.0,1.0,CBA,Raw_Data_III_Digit_Paradigm_2nd_Control_Group,,
BI_C2_Digit,49.0,4.0,74,742.0,1.0,2.0,ABA,Raw_Data_III_Digit_Paradigm_2nd_Control_Group,,
BI_C2_Digit,49.0,4.0,75,960.0,1.0,3.0,CBA,Raw_Data_III_Digit_Paradigm_2nd_Control_Group,,
BI_C2_Digit,49.0,4.0,76,674.0,1.0,2.0,ABA,Raw_Data_III_Digit_Paradigm_2nd_Control_Group,,
BI_C2_Digit,49.0,4.0,77,1190.0,1.0,3.0,ABA,Raw_Data_III_Digit_Paradigm_2nd_Control_Group,,
BI_C2_Digit,49.0,4.0,78,687.0,1.0,2.0,ABA,Raw_Data_III_Digit_Paradigm_2nd_Control_Group,,
BI_C2_Digit,49.0,4.0,79,794.0,1.0,1.0,CBA,Raw_Data_III_Digit_Paradigm_2nd_Control_Group,,
BI_C2_Digit,49.0,4.0,80,762.0,1.0,2.0,ABA,Raw_Data_III_Digit_Paradigm_2nd_Control_Group,,
BI_C2_Digit,49.0,4.0,81,1428.0,0.0,3.0,CBA,Raw_Data_III_Digit_Paradigm_2nd_Control_Group,,
BI_C2_Digit,49.0,4.0,82,903.0,1.0,2.0,ABA,Raw_Data_III_Digit_Paradigm_2nd_Control_Group,,
BI_C2_Digit,49.0,4.0,83,475.0,1.0,1.0,CBA,Raw_Data_III_Digit_Paradigm_2nd_Control_Group,,
BI_C2_Digit,49.0,4.0,84,1040.0,1.0,3.0,CBA,Raw_Data_III_Digit_Paradigm_2nd_Control_Group,,
BI_C2_Digit,49.0,4.0,85,877.0,1.0,2.0,CBA,Raw_Data_III_Digit_Paradigm_2nd_Control_Group,,
BI_C2_Digit,49.0,4.0,86,962.0,1.0,1.0,CBA,Raw_Data_III_Digit_Paradigm_2nd_Control_Group,,
BI_C2_Digit,49.0,4.0,87,668.0,0.0,2.0,ABA,Raw_Data_III_Digit_Paradigm_2nd_Control_Group,,
BI_C2_Digit,49.0,4.0,88,805.0,1.0,1.0,ABA,Raw_Data_III_Digit_Paradigm_2nd_Control_Group,,
BI_C2_Digit,49.0,4.0,89,1204.0,1.0,3.0,CBA,Raw_Data_III_Digit_Paradigm_2nd_Control_Group,,
BI_C2_Digit,49.0,4.0,90,1132.0,0.0,1.0,ABA,Raw_Data_III_Digit_Paradigm_2nd_Control_Group,,
BI_C2_Digit,49.0,4.0,91,523.0,1.0,2.0,CBA,Raw_Data_III_Digit_Paradigm_2nd_Control_Group,,
BI_C2_Digit,49.0,4.0,92,501.0,1.0,1.0,ABA,Raw_Data_III_Digit_Paradigm_2nd_Control_Group,,
BI_C2_Digit,49.0,4.0,93,314.0,1.0,3.0,CBA,Raw_Data_III_Digit_Paradigm_2nd_Control_Group,,
BI_C2_Digit,49.0,4.0,94,517.0,1.0,2.0,CBA,Raw_Data_III_Digit_Paradigm_2nd_Control_Group,,
BI_C2_Digit,49.0,4.0,95,928.0,1.0,3.0,ABA,Raw_Data_III_Digit_Paradigm_2nd_Control_Group,,
BI_C2_Digit,49.0,4.0,96,923.0,0.0,1.0,CBA,Raw_Data_III_Digit_Paradigm_2nd_Control_Group,,
BI_C2_Digit,49.0,4.0,97,955.0,1.0,3.0,ABA,Raw_Data_III_Digit_Paradigm_2nd_Control_Group,,
BI_C2_Digit,49.0,4.0,98,396.0,1.0,1.0,ABA,Raw_Data_III_Digit_Paradigm_2nd_Control_Group,,
BI_C2_Digit,49.0,4.0,99,900.0,1.0,3.0,ABA,Raw_Data_III_Digit_Paradigm_2nd_Control_Group,,
BI_C2_Digit,49.0,4.0,100,792.0,1.0,1.0,ABA,Raw_Data_III_Digit_Paradigm_2nd_Control_Group,,
BI_C2_Digit,49.0,4.0,101,992.0,1.0,2.0,CBA,Raw_Data_III_Digit_Paradigm_2nd_Control_Group,,
BI_C2_Digit,49.0,4.0,102,1521.0,1.0,3.0,CBA,Raw_Data_III_Digit_Paradigm_2nd_Control_Group,,
BI_C2_Digit,49.0,4.0,103,764.0,1.0,1.0,CBA,Raw_Data_III_Digit_Paradigm_2nd_Control_Group,,
BI_C2_Digit,49.0,4.0,104,493.0,1.0,3.0,ABA,Raw_Data_III_Digit_Paradigm_2nd_Control_Group,,
BI_C2_Digit,49.0,4.0,105,857.0,1.0,2.0,CBA,Raw_Data_III_Digit_Paradigm_2nd_Control_Group,,
BI_C2_Digit,49.0,4.0,106,1062.0,1.0,3.0,ABA,Raw_Data_III_Digit_Paradigm_2nd_Control_Group,,
BI_C2_Digit,49.0,4.0,107,796.0,1.0,2.0,ABA,Raw_Data_III_Digit_Paradigm_2nd_Control_Group,,
BI_C2_Digit,49.0,4.0,108,764.0,1.0,1.0,CBA,Raw_Data_III_Digit_Paradigm_2nd_Control_Group,,
BI_C2_Digit,49.0,4.0,109,998.0,1.0,3.0,CBA,Raw_Data_III_Digit_Paradigm_2nd_Control_Group,,
BI_C2_Digit,49.0,4.0,110,877.0,1.0,1.0,ABA,Raw_Data_III_Digit_Paradigm_2nd_Control_Group,,
BI_C2_Digit,49.0,4.0,111,986.0,1.0,3.0,ABA,Raw_Data_III_Digit_Paradigm_2nd_Control_Group,,
BI_C2_Digit,49.0,4.0,112,555.0,1.0,1.0,ABA,Raw_Data_III_Digit_Paradigm_2nd_Control_Group,,
BI_C2_Digit,49.0,4.0,113,1117.0,1.0,3.0,ABA,Raw_Data_III_Digit_Paradigm_2nd_Control_Group,,
BI_C2_Digit,49.0,4.0,114,992.0,1.0,2.0,CBA,Raw_Data_III_Digit_Paradigm_2nd_Control_Group,,
BI_C2_Digit,49.0,4.0,115,1113.0,0.0,1.0,CBA,Raw_Data_III_Digit_Paradigm_2nd_Control_Group,,
BI_C2_Digit,49.0,4.0,116,425.0,1.0,3.0,CBA,Raw_Data_III_Digit_Paradigm_2nd_Control_Group,,
BI_C2_Digit,49.0,4.0,117,503.0,1.0,1.0,ABA,Raw_Data_III_Digit_Paradigm_2nd_Control_Group,,
BI_C2_Digit,49.0,4.0,118,1131.0,1.0,3.0,ABA,Raw_Data_III_Digit_Paradigm_2nd_Control_Group,,
BI_C2_Digit,49.0,4.0,119,846.0,1.0,2.0,CBA,Raw_Data_III_Digit_Paradigm_2nd_Control_Group,,
BI_C2_Digit,49.0,4.0,120,916.0,1.0,3.0,ABA,Raw_Data_III_Digit_Paradigm_2nd_Control_Group,,
BI_C2_Digit,50.0,1.0,1,5744.0,1.0,3.0,0.0,Raw_Data_III_Digit_Paradigm_2nd_Control_Group,,
BI_C2_Digit,50.0,1.0,2,1612.0,1.0,2.0,0.0,Raw_Data_III_Digit_Paradigm_2nd_Control_Group,,
BI_C2_Digit,50.0,1.0,3,1994.0,1.0,3.0,ABA,Raw_Data_III_Digit_Paradigm_2nd_Control_Group,,
BI_C2_Digit,50.0,1.0,4,1042.0,1.0,2.0,ABA,Raw_Data_III_Digit_Paradigm_2nd_Control_Group,,
BI_C2_Digit,50.0,1.0,5,3519.0,1.0,3.0,ABA,Raw_Data_III_Digit_Paradigm_2nd_Control_Group,,
BI_C2_Digit,50.0,1.0,6,1491.0,1.0,1.0,CBA,Raw_Data_III_Digit_Paradigm_2nd_Control_Group,,
BI_C2_Digit,50.0,1.0,7,919.0,1.0,2.0,CBA,Raw_Data_III_Digit_Paradigm_2nd_Control_Group,,
BI_C2_Digit,50.0,1.0,8,1568.0,1.0,1.0,ABA,Raw_Data_III_Digit_Paradigm_2nd_Control_Group,,
BI_C2_Digit,50.0,1.0,9,2201.0,1.0,2.0,ABA,Raw_Data_III_Digit_Paradigm_2nd_Control_Group,,
BI_C2_Digit,50.0,1.0,10,1537.0,1.0,1.0,ABA,Raw_Data_III_Digit_Paradigm_2nd_Control_Group,,
BI_C2_Digit,50.0,1.0,11,1515.0,1.0,2.0,ABA,Raw_Data_III_Digit_Paradigm_2nd_Control_Group,,
BI_C2_Digit,50.0,1.0,12,2061.0,1.0,3.0,CBA,Raw_Data_III_Digit_Paradigm_2nd_Control_Group,,
BI_C2_Digit,50.0,1.0,13,1770.0,1.0,2.0,ABA,Raw_Data_III_Digit_Paradigm_2nd_Control_Group,,
BI_C2_Digit,50.0,1.0,14,3291.0,1.0,3.0,ABA,Raw_Data_III_Digit_Paradigm_2nd_Control_Group,,
BI_C2_Digit,50.0,1.0,15,1152.0,1.0,1.0,CBA,Raw_Data_III_Digit_Paradigm_2nd_Control_Group,,
BI_C2_Digit,50.0,1.0,16,7016.0,1.0,3.0,ABA,Raw_Data_III_Digit_Paradigm_2nd_Control_Group,,
BI_C2_Digit,50.0,1.0,17,1314.0,1.0,1.0,ABA,Raw_Data_III_Digit_Paradigm_2nd_Control_Group,,
BI_C2_Digit,50.0,1.0,18,1444.0,1.0,3.0,ABA,Raw_Data_III_Digit_Paradigm_2nd_Control_Group,,
BI_C2_Digit,50.0,1.0,19,1945.0,1.0,1.0,ABA,Raw_Data_III_Digit_Paradigm_2nd_Control_Group,,
BI_C2_Digit,50.0,1.0,20,2339.0,1.0,3.0,ABA,Raw_Data_III_Digit_Paradigm_2nd_Control_Group,,
BI_C2_Digit,50.0,1.0,21,1197.0,1.0,2.0,CBA,Raw_Data_III_Digit_Paradigm_2nd_Control_Group,,
BI_C2_Digit,50.0,1.0,22,1132.0,1.0,1.0,CBA,Raw_Data_III_Digit_Paradigm_2nd_Control_Group,,
BI_C2_Digit,50.0,1.0,23,3605.0,1.0,3.0,CBA,Raw_Data_III_Digit_Paradigm_2nd_Control_Group,,
BI_C2_Digit,50.0,1.0,24,1758.0,1.0,2.0,CBA,Raw_Data_III_Digit_Paradigm_2nd_Control_Group,,
BI_C2_Digit,50.0,1.0,25,4199.0,1.0,3.0,ABA,Raw_Data_III_Digit_Paradigm_2nd_Control_Group,,
BI_C2_Digit,50.0,1.0,26,1216.0,1.0,1.0,CBA,Raw_Data_III_Digit_Paradigm_2nd_Control_Group,,
BI_C2_Digit,50.0,1.0,27,1510.0,1.0,2.0,CBA,Raw_Data_III_Digit_Paradigm_2nd_Control_Group,,
BI_C2_Digit,50.0,1.0,28,1193.0,1.0,1.0,ABA,Raw_Data_III_Digit_Paradigm_2nd_Control_Group,,
BI_C2_Digit,50.0,1.0,29,3577.0,1.0,3.0,CBA,Raw_Data_III_Digit_Paradigm_2nd_Control_Group,,
BI_C2_Digit,50.0,1.0,30,2763.0,1.0,1.0,ABA,Raw_Data_III_Digit_Paradigm_2nd_Control_Group,,
BI_C2_Digit,50.0,1.0,31,1163.0,1.0,2.0,CBA,Raw_Data_III_Digit_Paradigm_2nd_Control_Group,,
BI_C2_Digit,50.0,1.0,32,2268.0,1.0,1.0,ABA,Raw_Data_III_Digit_Paradigm_2nd_Control_Group,,
BI_C2_Digit,50.0,1.0,33,1649.0,1.0,2.0,ABA,Raw_Data_III_Digit_Paradigm_2nd_Control_Group,,
BI_C2_Digit,50.0,1.0,34,1454.0,1.0,3.0,CBA,Raw_Data_III_Digit_Paradigm_2nd_Control_Group,,
BI_C2_Digit,50.0,1.0,35,3066.0,1.0,2.0,ABA,Raw_Data_III_Digit_Paradigm_2nd_Control_Group,,
BI_C2_Digit,50.0,1.0,36,824.0,1.0,1.0,CBA,Raw_Data_III_Digit_Paradigm_2nd_Control_Group,,
BI_C2_Digit,50.0,1.0,37,2006.0,1.0,2.0,ABA,Raw_Data_III_Digit_Paradigm_2nd_Control_Group,,
BI_C2_Digit,50.0,1.0,38,1974.0,1.0,3.0,CBA,Raw_Data_III_Digit_Paradigm_2nd_Control_Group,,
BI_C2_Digit,50.0,1.0,39,814.0,1.0,1.0,CBA,Raw_Data_III_Digit_Paradigm_2nd_Control_Group,,
BI_C2_Digit,50.0,1.0,40,1756.0,1.0,2.0,CBA,Raw_Data_III_Digit_Paradigm_2nd_Control_Group,,
BI_C2_Digit,50.0,1.0,41,2414.0,1.0,3.0,CBA,Raw_Data_III_Digit_Paradigm_2nd_Control_Group,,
BI_C2_Digit,50.0,1.0,42,1173.0,1.0,1.0,CBA,Raw_Data_III_Digit_Paradigm_2nd_Control_Group,,
BI_C2_Digit,50.0,1.0,43,2356.0,1.0,3.0,ABA,Raw_Data_III_Digit_Paradigm_2nd_Control_Group,,
BI_C2_Digit,50.0,1.0,44,1686.0,1.0,1.0,ABA,Raw_Data_III_Digit_Paradigm_2nd_Control_Group,,
BI_C2_Digit,50.0,1.0,45,2834.0,1.0,2.0,CBA,Raw_Data_III_Digit_Paradigm_2nd_Control_Group,,
BI_C2_Digit,50.0,1.0,46,1673.0,1.0,1.0,ABA,Raw_Data_III_Digit_Paradigm_2nd_Control_Group,,
BI_C2_Digit,50.0,1.0,47,2189.0,1.0,3.0,CBA,Raw_Data_III_Digit_Paradigm_2nd_Control_Group,,
BI_C2_Digit,50.0,1.0,48,3046.0,1.0,2.0,CBA,Raw_Data_III_Digit_Paradigm_2nd_Control_Group,,
BI_C2_Digit,50.0,1.0,49,1300.0,1.0,1.0,CBA,Raw_Data_III_Digit_Paradigm_2nd_Control_Group,,
BI_C2_Digit,50.0,1.0,50,2079.0,1.0,3.0,CBA,Raw_Data_III_Digit_Paradigm_2nd_Control_Group,,
BI_C2_Digit,50.0,1.0,51,1548.0,1.0,2.0,CBA,Raw_Data_III_Digit_Paradigm_2nd_Control_Group,,
BI_C2_Digit,50.0,1.0,52,5446.0,1.0,3.0,ABA,Raw_Data_III_Digit_Paradigm_2nd_Control_Group,,
BI_C2_Digit,50.0,1.0,53,5245.0,1.0,1.0,CBA,Raw_Data_III_Digit_Paradigm_2nd_Control_Group,,
BI_C2_Digit,50.0,1.0,54,2006.0,1.0,2.0,CBA,Raw_Data_III_Digit_Paradigm_2nd_Control_Group,,
BI_C2_Digit,50.0,1.0,55,1365.0,1.0,3.0,CBA,Raw_Data_III_Digit_Paradigm_2nd_Control_Group,,
BI_C2_Digit,50.0,1.0,56,1542.0,1.0,2.0,ABA,Raw_Data_III_Digit_Paradigm_2nd_Control_Group,,
BI_C2_Digit,50.0,1.0,57,1601.0,1.0,1.0,CBA,Raw_Data_III_Digit_Paradigm_2nd_Control_Group,,
BI_C2_Digit,50.0,1.0,58,3057.0,1.0,2.0,ABA,Raw_Data_III_Digit_Paradigm_2nd_Control_Group,,
BI_C2_Digit,50.0,1.0,59,4871.0,1.0,3.0,CBA,Raw_Data_III_Digit_Paradigm_2nd_Control_Group,,
BI_C2_Digit,50.0,1.0,60,1670.0,1.0,1.0,CBA,Raw_Data_III_Digit_Paradigm_2nd_Control_Group,,
BI_C2_Digit,50.0,1.0,61,1675.0,1.0,2.0,CBA,Raw_Data_III_Digit_Paradigm_2nd_Control_Group,,
BI_C2_Digit,50.0,1.0,62,1192.0,1.0,1.0,ABA,Raw_Data_III_Digit_Paradigm_2nd_Control_Group,,
BI_C2_Digit,50.0,1.0,63,1617.0,1.0,2.0,ABA,Raw_Data_III_Digit_Paradigm_2nd_Control_Group,,
BI_C2_Digit,50.0,1.0,64,2633.0,1.0,3.0,CBA,Raw_Data_III_Digit_Paradigm_2nd_Control_Group,,
BI_C2_Digit,50.0,1.0,65,1064.0,1.0,2.0,ABA,Raw_Data_III_Digit_Paradigm_2nd_Control_Group,,
BI_C2_Digit,50.0,1.0,66,1830.0,1.0,3.0,ABA,Raw_Data_III_Digit_Paradigm_2nd_Control_Group,,
BI_C2_Digit,50.0,1.0,67,2029.0,1.0,1.0,CBA,Raw_Data_III_Digit_Paradigm_2nd_Control_Group,,
BI_C2_Digit,50.0,1.0,68,3333.0,1.0,2.0,CBA,Raw_Data_III_Digit_Paradigm_2nd_Control_Group,,
BI_C2_Digit,50.0,1.0,69,4648.0,1.0,3.0,CBA,Raw_Data_III_Digit_Paradigm_2nd_Control_Group,,
BI_C2_Digit,50.0,1.0,70,1552.0,1.0,1.0,CBA,Raw_Data_III_Digit_Paradigm_2nd_Control_Group,,
BI_C2_Digit,50.0,1.0,71,2043.0,1.0,2.0,CBA,Raw_Data_III_Digit_Paradigm_2nd_Control_Group,,
BI_C2_Digit,50.0,1.0,72,1320.0,1.0,1.0,ABA,Raw_Data_III_Digit_Paradigm_2nd_Control_Group,,
BI_C2_Digit,50.0,1.0,73,3827.0,1.0,2.0,ABA,Raw_Data_III_Digit_Paradigm_2nd_Control_Group,,
BI_C2_Digit,50.0,1.0,74,2083.0,1.0,1.0,ABA,Raw_Data_III_Digit_Paradigm_2nd_Control_Group,,
BI_C2_Digit,50.0,1.0,75,2217.0,1.0,3.0,CBA,Raw_Data_III_Digit_Paradigm_2nd_Control_Group,,
BI_C2_Digit,50.0,1.0,76,1696.0,1.0,1.0,ABA,Raw_Data_III_Digit_Paradigm_2nd_Control_Group,,
BI_C2_Digit,50.0,1.0,77,1469.0,1.0,2.0,CBA,Raw_Data_III_Digit_Paradigm_2nd_Control_Group,,
BI_C2_Digit,50.0,1.0,78,2146.0,1.0,3.0,CBA,Raw_Data_III_Digit_Paradigm_2nd_Control_Group,,
BI_C2_Digit,50.0,1.0,79,2453.0,1.0,2.0,ABA,Raw_Data_III_Digit_Paradigm_2nd_Control_Group,,
BI_C2_Digit,50.0,1.0,80,1516.0,1.0,1.0,CBA,Raw_Data_III_Digit_Paradigm_2nd_Control_Group,,
BI_C2_Digit,50.0,1.0,81,1416.0,1.0,2.0,ABA,Raw_Data_III_Digit_Paradigm_2nd_Control_Group,,
BI_C2_Digit,50.0,1.0,82,879.0,1.0,1.0,ABA,Raw_Data_III_Digit_Paradigm_2nd_Control_Group,,
BI_C2_Digit,50.0,1.0,83,1244.0,1.0,2.0,ABA,Raw_Data_III_Digit_Paradigm_2nd_Control_Group,,
BI_C2_Digit,50.0,1.0,84,2274.0,1.0,3.0,CBA,Raw_Data_III_Digit_Paradigm_2nd_Control_Group,,
BI_C2_Digit,50.0,1.0,85,2655.0,1.0,2.0,ABA,Raw_Data_III_Digit_Paradigm_2nd_Control_Group,,
BI_C2_Digit,50.0,1.0,86,2526.0,1.0,3.0,ABA,Raw_Data_III_Digit_Paradigm_2nd_Control_Group,,
BI_C2_Digit,50.0,1.0,87,1562.0,1.0,2.0,ABA,Raw_Data_III_Digit_Paradigm_2nd_Control_Group,,
BI_C2_Digit,50.0,1.0,88,1075.0,1.0,1.0,CBA,Raw_Data_III_Digit_Paradigm_2nd_Control_Group,,
BI_C2_Digit,50.0,1.0,89,3136.0,1.0,2.0,ABA,Raw_Data_III_Digit_Paradigm_2nd_Control_Group,,
BI_C2_Digit,50.0,1.0,90,4084.0,1.0,3.0,CBA,Raw_Data_III_Digit_Paradigm_2nd_Control_Group,,
BI_C2_Digit,50.0,1.0,91,2139.0,1.0,1.0,CBA,Raw_Data_III_Digit_Paradigm_2nd_Control_Group,,
BI_C2_Digit,50.0,1.0,92,6533.0,1.0,3.0,ABA,Raw_Data_III_Digit_Paradigm_2nd_Control_Group,,
BI_C2_Digit,50.0,1.0,93,1691.0,1.0,1.0,ABA,Raw_Data_III_Digit_Paradigm_2nd_Control_Group,,
BI_C2_Digit,50.0,1.0,94,2583.0,1.0,3.0,ABA,Raw_Data_III_Digit_Paradigm_2nd_Control_Group,,
BI_C2_Digit,50.0,1.0,95,1129.0,1.0,2.0,CBA,Raw_Data_III_Digit_Paradigm_2nd_Control_Group,,
BI_C2_Digit,50.0,1.0,96,1252.0,1.0,1.0,CBA,Raw_Data_III_Digit_Paradigm_2nd_Control_Group,,
BI_C2_Digit,50.0,1.0,97,1450.0,1.0,2.0,ABA,Raw_Data_III_Digit_Paradigm_2nd_Control_Group,,
BI_C2_Digit,50.0,1.0,98,1417.0,1.0,3.0,CBA,Raw_Data_III_Digit_Paradigm_2nd_Control_Group,,
BI_C2_Digit,50.0,1.0,99,1832.0,1.0,2.0,ABA,Raw_Data_III_Digit_Paradigm_2nd_Control_Group,,
BI_C2_Digit,50.0,1.0,100,3888.0,1.0,3.0,ABA,Raw_Data_III_Digit_Paradigm_2nd_Control_Group,,
BI_C2_Digit,50.0,1.0,101,1726.0,1.0,1.0,CBA,Raw_Data_III_Digit_Paradigm_2nd_Control_Group,,
BI_C2_Digit,50.0,1.0,102,3336.0,1.0,2.0,CBA,Raw_Data_III_Digit_Paradigm_2nd_Control_Group,,
BI_C2_Digit,50.0,1.0,103,1516.0,1.0,1.0,ABA,Raw_Data_III_Digit_Paradigm_2nd_Control_Group,,
BI_C2_Digit,50.0,1.0,104,2190.0,1.0,3.0,CBA,Raw_Data_III_Digit_Paradigm_2nd_Control_Group,,
BI_C2_Digit,50.0,1.0,105,1847.0,1.0,2.0,CBA,Raw_Data_III_Digit_Paradigm_2nd_Control_Group,,
BI_C2_Digit,50.0,1.0,106,1414.0,1.0,1.0,CBA,Raw_Data_III_Digit_Paradigm_2nd_Control_Group,,
BI_C2_Digit,50.0,1.0,107,2149.0,1.0,3.0,CBA,Raw_Data_III_Digit_Paradigm_2nd_Control_Group,,
BI_C2_Digit,50.0,1.0,108,1432.0,1.0,1.0,ABA,Raw_Data_III_Digit_Paradigm_2nd_Control_Group,,
BI_C2_Digit,50.0,1.0,109,2463.0,1.0,3.0,ABA,Raw_Data_III_Digit_Paradigm_2nd_Control_Group,,
BI_C2_Digit,50.0,1.0,110,2461.0,1.0,2.0,CBA,Raw_Data_III_Digit_Paradigm_2nd_Control_Group,,
BI_C2_Digit,50.0,1.0,111,2291.0,1.0,3.0,ABA,Raw_Data_III_Digit_Paradigm_2nd_Control_Group,,
BI_C2_Digit,50.0,1.0,112,1232.0,1.0,1.0,CBA,Raw_Data_III_Digit_Paradigm_2nd_Control_Group,,
BI_C2_Digit,50.0,1.0,113,2847.0,1.0,3.0,ABA,Raw_Data_III_Digit_Paradigm_2nd_Control_Group,,
BI_C2_Digit,50.0,1.0,114,1262.0,1.0,1.0,ABA,Raw_Data_III_Digit_Paradigm_2nd_Control_Group,,
BI_C2_Digit,50.0,1.0,115,2516.0,1.0,3.0,ABA,Raw_Data_III_Digit_Paradigm_2nd_Control_Group,,
BI_C2_Digit,50.0,1.0,116,1120.0,1.0,1.0,ABA,Raw_Data_III_Digit_Paradigm_2nd_Control_Group,,
BI_C2_Digit,50.0,1.0,117,1164.0,1.0,3.0,ABA,Raw_Data_III_Digit_Paradigm_2nd_Control_Group,,
BI_C2_Digit,50.0,1.0,118,2390.0,1.0,1.0,ABA,Raw_Data_III_Digit_Paradigm_2nd_Control_Group,,
BI_C2_Digit,50.0,1.0,119,2134.0,1.0,3.0,ABA,Raw_Data_III_Digit_Paradigm_2nd_Control_Group,,
BI_C2_Digit,50.0,1.0,120,1618.0,1.0,2.0,CBA,Raw_Data_III_Digit_Paradigm_2nd_Control_Group,,
BI_C2_Digit,50.0,2.0,1,3771.0,1.0,3.0,0.0,Raw_Data_III_Digit_Paradigm_2nd_Control_Group,,
BI_C2_Digit,50.0,2.0,2,2373.0,1.0,2.0,0.0,Raw_Data_III_Digit_Paradigm_2nd_Control_Group,,
BI_C2_Digit,50.0,2.0,3,1183.0,1.0,3.0,ABA,Raw_Data_III_Digit_Paradigm_2nd_Control_Group,,
BI_C2_Digit,50.0,2.0,4,1112.0,1.0,1.0,CBA,Raw_Data_III_Digit_Paradigm_2nd_Control_Group,,
BI_C2_Digit,50.0,2.0,5,2355.0,1.0,3.0,ABA,Raw_Data_III_Digit_Paradigm_2nd_Control_Group,,
BI_C2_Digit,50.0,2.0,6,2502.0,1.0,2.0,CBA,Raw_Data_III_Digit_Paradigm_2nd_Control_Group,,
BI_C2_Digit,50.0,2.0,7,1307.0,1.0,1.0,CBA,Raw_Data_III_Digit_Paradigm_2nd_Control_Group,,
BI_C2_Digit,50.0,2.0,8,1879.0,0.0,3.0,CBA,Raw_Data_III_Digit_Paradigm_2nd_Control_Group,,
BI_C2_Digit,50.0,2.0,9,1632.0,1.0,1.0,ABA,Raw_Data_III_Digit_Paradigm_2nd_Control_Group,,
BI_C2_Digit,50.0,2.0,10,4695.0,1.0,3.0,ABA,Raw_Data_III_Digit_Paradigm_2nd_Control_Group,,
BI_C2_Digit,50.0,2.0,11,1373.0,1.0,2.0,CBA,Raw_Data_III_Digit_Paradigm_2nd_Control_Group,,
BI_C2_Digit,50.0,2.0,12,1006.0,1.0,1.0,CBA,Raw_Data_III_Digit_Paradigm_2nd_Control_Group,,
BI_C2_Digit,50.0,2.0,13,2501.0,1.0,3.0,CBA,Raw_Data_III_Digit_Paradigm_2nd_Control_Group,,
BI_C2_Digit,50.0,2.0,14,1026.0,1.0,2.0,CBA,Raw_Data_III_Digit_Paradigm_2nd_Control_Group,,
BI_C2_Digit,50.0,2.0,15,1953.0,1.0,3.0,ABA,Raw_Data_III_Digit_Paradigm_2nd_Control_Group,,
BI_C2_Digit,50.0,2.0,16,2587.0,1.0,1.0,CBA,Raw_Data_III_Digit_Paradigm_2nd_Control_Group,,
BI_C2_Digit,50.0,2.0,17,2756.0,1.0,3.0,ABA,Raw_Data_III_Digit_Paradigm_2nd_Control_Group,,
BI_C2_Digit,50.0,2.0,18,1247.0,1.0,1.0,ABA,Raw_Data_III_Digit_Paradigm_2nd_Control_Group,,
BI_C2_Digit,50.0,2.0,19,2870.0,1.0,2.0,CBA,Raw_Data_III_Digit_Paradigm_2nd_Control_Group,,
BI_C2_Digit,50.0,2.0,20,6011.0,1.0,3.0,CBA,Raw_Data_III_Digit_Paradigm_2nd_Control_Group,,
BI_C2_Digit,50.0,2.0,21,2350.0,1.0,1.0,CBA,Raw_Data_III_Digit_Paradigm_2nd_Control_Group,,
BI_C2_Digit,50.0,2.0,22,1801.0,1.0,3.0,ABA,Raw_Data_III_Digit_Paradigm_2nd_Control_Group,,
BI_C2_Digit,50.0,2.0,23,1441.0,1.0,1.0,ABA,Raw_Data_III_Digit_Paradigm_2nd_Control_Group,,
BI_C2_Digit,50.0,2.0,24,2575.0,1.0,2.0,CBA,Raw_Data_III_Digit_Paradigm_2nd_Control_Group,,
BI_C2_Digit,50.0,2.0,25,1185.0,1.0,1.0,ABA,Raw_Data_III_Digit_Paradigm_2nd_Control_Group,,
BI_C2_Digit,50.0,2.0,26,2115.0,1.0,2.0,ABA,Raw_Data_III_Digit_Paradigm_2nd_Control_Group,,
BI_C2_Digit,50.0,2.0,27,4390.0,1.0,3.0,CBA,Raw_Data_III_Digit_Paradigm_2nd_Control_Group,,
BI_C2_Digit,50.0,2.0,28,1752.0,1.0,1.0,CBA,Raw_Data_III_Digit_Paradigm_2nd_Control_Group,,
BI_C2_Digit,50.0,2.0,29,3875.0,1.0,3.0,ABA,Raw_Data_III_Digit_Paradigm_2nd_Control_Group,,
BI_C2_Digit,50.0,2.0,30,1017.0,1.0,2.0,CBA,Raw_Data_III_Digit_Paradigm_2nd_Control_Group,,
BI_C2_Digit,50.0,2.0,31,1096.0,1.0,1.0,CBA,Raw_Data_III_Digit_Paradigm_2nd_Control_Group,,
BI_C2_Digit,50.0,2.0,32,1893.0,1.0,2.0,ABA,Raw_Data_III_Digit_Paradigm_2nd_Control_Group,,
BI_C2_Digit,50.0,2.0,33,6097.0,1.0,3.0,CBA,Raw_Data_III_Digit_Paradigm_2nd_Control_Group,,
BI_C2_Digit,50.0,2.0,34,1376.0,1.0,1.0,CBA,Raw_Data_III_Digit_Paradigm_2nd_Control_Group,,
BI_C2_Digit,50.0,2.0,35,5345.0,1.0,3.0,ABA,Raw_Data_III_Digit_Paradigm_2nd_Control_Group,,
BI_C2_Digit,50.0,2.0,36,1118.0,1.0,2.0,CBA,Raw_Data_III_Digit_Paradigm_2nd_Control_Group,,
BI_C2_Digit,50.0,2.0,37,681.0,1.0,1.0,CBA,Raw_Data_III_Digit_Paradigm_2nd_Control_Group,,
BI_C2_Digit,50.0,2.0,38,2142.0,1.0,2.0,ABA,Raw_Data_III_Digit_Paradigm_2nd_Control_Group,,
BI_C2_Digit,50.0,2.0,39,2737.0,1.0,3.0,CBA,Raw_Data_III_Digit_Paradigm_2nd_Control_Group,,
BI_C2_Digit,50.0,2.0,40,988.0,1.0,2.0,ABA,Raw_Data_III_Digit_Paradigm_2nd_Control_Group,,
BI_C2_Digit,50.0,2.0,41,1220.0,1.0,1.0,CBA,Raw_Data_III_Digit_Paradigm_2nd_Control_Group,,
BI_C2_Digit,50.0,2.0,42,1211.0,1.0,2.0,ABA,Raw_Data_III_Digit_Paradigm_2nd_Control_Group,,
BI_C2_Digit,50.0,2.0,43,2011.0,1.0,1.0,ABA,Raw_Data_III_Digit_Paradigm_2nd_Control_Group,,
BI_C2_Digit,50.0,2.0,44,2420.0,1.0,3.0,CBA,Raw_Data_III_Digit_Paradigm_2nd_Control_Group,,
BI_C2_Digit,50.0,2.0,45,1674.0,1.0,2.0,CBA,Raw_Data_III_Digit_Paradigm_2nd_Control_Group,,
BI_C2_Digit,50.0,2.0,46,2128.0,1.0,1.0,CBA,Raw_Data_III_Digit_Paradigm_2nd_Control_Group,,
BI_C2_Digit,50.0,2.0,47,2036.0,1.0,2.0,ABA,Raw_Data_III_Digit_Paradigm_2nd_Control_Group,,
BI_C2_Digit,50.0,2.0,48,2563.0,1.0,3.0,CBA,Raw_Data_III_Digit_Paradigm_2nd_Control_Group,,
BI_C2_Digit,50.0,2.0,49,1509.0,1.0,2.0,ABA,Raw_Data_III_Digit_Paradigm_2nd_Control_Group,,
BI_C2_Digit,50.0,2.0,50,1697.0,1.0,3.0,ABA,Raw_Data_III_Digit_Paradigm_2nd_Control_Group,,
BI_C2_Digit,50.0,2.0,51,1054.0,1.0,2.0,ABA,Raw_Data_III_Digit_Paradigm_2nd_Control_Group,,
BI_C2_Digit,50.0,2.0,52,916.0,1.0,1.0,CBA,Raw_Data_III_Digit_Paradigm_2nd_Control_Group,,
BI_C2_Digit,50.0,2.0,53,3264.0,1.0,3.0,CBA,Raw_Data_III_Digit_Paradigm_2nd_Control_Group,,
BI_C2_Digit,50.0,2.0,54,1270.0,1.0,2.0,CBA,Raw_Data_III_Digit_Paradigm_2nd_Control_Group,,
BI_C2_Digit,50.0,2.0,55,2980.0,1.0,3.0,ABA,Raw_Data_III_Digit_Paradigm_2nd_Control_Group,,
BI_C2_Digit,50.0,2.0,56,3614.0,1.0,2.0,ABA,Raw_Data_III_Digit_Paradigm_2nd_Control_Group,,
BI_C2_Digit,50.0,2.0,57,4158.0,1.0,3.0,ABA,Raw_Data_III_Digit_Paradigm_2nd_Control_Group,,
BI_C2_Digit,50.0,2.0,58,1369.0,1.0,2.0,ABA,Raw_Data_III_Digit_Paradigm_2nd_Control_Group,,
BI_C2_Digit,50.0,2.0,59,4747.0,1.0,3.0,ABA,Raw_Data_III_Digit_Paradigm_2nd_Control_Group,,
BI_C2_Digit,50.0,2.0,60,2271.0,1.0,2.0,ABA,Raw_Data_III_Digit_Paradigm_2nd_Control_Group,,
BI_C2_Digit,50.0,2.0,61,7525.0,1.0,3.0,ABA,Raw_Data_III_Digit_Paradigm_2nd_Control_Group,,
BI_C2_Digit,50.0,2.0,62,1499.0,1.0,1.0,CBA,Raw_Data_III_Digit_Paradigm_2nd_Control_Group,,
BI_C2_Digit,50.0,2.0,63,4703.0,1.0,3.0,ABA,Raw_Data_III_Digit_Paradigm_2nd_Control_Group,,
BI_C2_Digit,50.0,2.0,64,1165.0,1.0,1.0,ABA,Raw_Data_III_Digit_Paradigm_2nd_Control_Group,,
BI_C2_Digit,50.0,2.0,65,1447.0,1.0,2.0,CBA,Raw_Data_III_Digit_Paradigm_2nd_Control_Group,,
BI_C2_Digit,50.0,2.0,66,2244.0,1.0,1.0,ABA,Raw_Data_III_Digit_Paradigm_2nd_Control_Group,,
BI_C2_Digit,50.0,2.0,67,1187.0,0.0,2.0,ABA,Raw_Data_III_Digit_Paradigm_2nd_Control_Group,,
BI_C2_Digit,50.0,2.0,68,2216.0,1.0,3.0,CBA,Raw_Data_III_Digit_Paradigm_2nd_Control_Group,,
BI_C2_Digit,50.0,2.0,69,1049.0,1.0,1.0,CBA,Raw_Data_III_Digit_Paradigm_2nd_Control_Group,,
BI_C2_Digit,50.0,2.0,70,1087.0,1.0,2.0,CBA,Raw_Data_III_Digit_Paradigm_2nd_Control_Group,,
BI_C2_Digit,50.0,2.0,71,1451.0,1.0,3.0,CBA,Raw_Data_III_Digit_Paradigm_2nd_Control_Group,,
BI_C2_Digit,50.0,2.0,72,2530.0,1.0,2.0,ABA,Raw_Data_III_Digit_Paradigm_2nd_Control_Group,,
BI_C2_Digit,50.0,2.0,73,1901.0,1.0,3.0,ABA,Raw_Data_III_Digit_Paradigm_2nd_Control_Group,,
BI_C2_Digit,50.0,2.0,74,1305.0,1.0,1.0,CBA,Raw_Data_III_Digit_Paradigm_2nd_Control_Group,,
BI_C2_Digit,50.0,2.0,75,1099.0,1.0,2.0,CBA,Raw_Data_III_Digit_Paradigm_2nd_Control_Group,,
BI_C2_Digit,50.0,2.0,76,5150.0,1.0,1.0,ABA,Raw_Data_III_Digit_Paradigm_2nd_Control_Group,,
BI_C2_Digit,50.0,2.0,77,4232.0,1.0,2.0,ABA,Raw_Data_III_Digit_Paradigm_2nd_Control_Group,,
BI_C2_Digit,50.0,2.0,78,6136.0,1.0,3.0,CBA,Raw_Data_III_Digit_Paradigm_2nd_Control_Group,,
BI_C2_Digit,50.0,2.0,79,861.0,1.0,1.0,CBA,Raw_Data_III_Digit_Paradigm_2nd_Control_Group,,
BI_C2_Digit,50.0,2.0,80,2347.0,1.0,2.0,CBA,Raw_Data_III_Digit_Paradigm_2nd_Control_Group,,
BI_C2_Digit,50.0,2.0,81,933.0,1.0,1.0,ABA,Raw_Data_III_Digit_Paradigm_2nd_Control_Group,,
BI_C2_Digit,50.0,2.0,82,1056.0,1.0,3.0,CBA,Raw_Data_III_Digit_Paradigm_2nd_Control_Group,,
BI_C2_Digit,50.0,2.0,83,934.0,1.0,2.0,CBA,Raw_Data_III_Digit_Paradigm_2nd_Control_Group,,
BI_C2_Digit,50.0,2.0,84,1177.0,1.0,1.0,CBA,Raw_Data_III_Digit_Paradigm_2nd_Control_Group,,
BI_C2_Digit,50.0,2.0,85,1826.0,1.0,3.0,CBA,Raw_Data_III_Digit_Paradigm_2nd_Control_Group,,
BI_C2_Digit,50.0,2.0,86,1016.0,1.0,1.0,ABA,Raw_Data_III_Digit_Paradigm_2nd_Control_Group,,
BI_C2_Digit,50.0,2.0,87,1719.0,1.0,3.0,ABA,Raw_Data_III_Digit_Paradigm_2nd_Control_Group,,
BI_C2_Digit,50.0,2.0,88,1058.0,1.0,1.0,ABA,Raw_Data_III_Digit_Paradigm_2nd_Control_Group,,
BI_C2_Digit,50.0,2.0,89,1055.0,1.0,3.0,ABA,Raw_Data_III_Digit_Paradigm_2nd_Control_Group,,
BI_C2_Digit,50.0,2.0,90,1612.0,1.0,2.0,CBA,Raw_Data_III_Digit_Paradigm_2nd_Control_Group,,
BI_C2_Digit,50.0,2.0,91,1930.0,1.0,3.0,ABA,Raw_Data_III_Digit_Paradigm_2nd_Control_Group,,
BI_C2_Digit,50.0,2.0,92,1252.0,1.0,2.0,ABA,Raw_Data_III_Digit_Paradigm_2nd_Control_Group,,
BI_C2_Digit,50.0,2.0,93,705.0,1.0,1.0,CBA,Raw_Data_III_Digit_Paradigm_2nd_Control_Group,,
BI_C2_Digit,50.0,2.0,94,2804.0,1.0,3.0,CBA,Raw_Data_III_Digit_Paradigm_2nd_Control_Group,,
BI_C2_Digit,50.0,2.0,95,1683.0,1.0,2.0,CBA,Raw_Data_III_Digit_Paradigm_2nd_Control_Group,,
BI_C2_Digit,50.0,2.0,96,1527.0,1.0,3.0,ABA,Raw_Data_III_Digit_Paradigm_2nd_Control_Group,,
BI_C2_Digit,50.0,2.0,97,754.0,1.0,1.0,CBA,Raw_Data_III_Digit_Paradigm_2nd_Control_Group,,
BI_C2_Digit,50.0,2.0,98,2147.0,1.0,2.0,CBA,Raw_Data_III_Digit_Paradigm_2nd_Control_Group,,
BI_C2_Digit,50.0,2.0,99,2164.0,1.0,1.0,ABA,Raw_Data_III_Digit_Paradigm_2nd_Control_Group,,
BI_C2_Digit,50.0,2.0,100,2173.0,1.0,3.0,CBA,Raw_Data_III_Digit_Paradigm_2nd_Control_Group,,
BI_C2_Digit,50.0,2.0,101,4606.0,1.0,1.0,ABA,Raw_Data_III_Digit_Paradigm_2nd_Control_Group,,
BI_C2_Digit,50.0,2.0,102,2399.0,1.0,3.0,ABA,Raw_Data_III_Digit_Paradigm_2nd_Control_Group,,
BI_C2_Digit,50.0,2.0,103,2952.0,1.0,2.0,CBA,Raw_Data_III_Digit_Paradigm_2nd_Control_Group,,
BI_C2_Digit,50.0,2.0,104,739.0,1.0,1.0,CBA,Raw_Data_III_Digit_Paradigm_2nd_Control_Group,,
BI_C2_Digit,50.0,2.0,105,2245.0,1.0,2.0,ABA,Raw_Data_III_Digit_Paradigm_2nd_Control_Group,,
BI_C2_Digit,50.0,2.0,106,1260.0,1.0,1.0,ABA,Raw_Data_III_Digit_Paradigm_2nd_Control_Group,,
BI_C2_Digit,50.0,2.0,107,1425.0,1.0,3.0,CBA,Raw_Data_III_Digit_Paradigm_2nd_Control_Group,,
BI_C2_Digit,50.0,2.0,108,1129.0,1.0,1.0,ABA,Raw_Data_III_Digit_Paradigm_2nd_Control_Group,,
BI_C2_Digit,50.0,2.0,109,891.0,1.0,3.0,ABA,Raw_Data_III_Digit_Paradigm_2nd_Control_Group,,
BI_C2_Digit,50.0,2.0,110,1439.0,1.0,2.0,CBA,Raw_Data_III_Digit_Paradigm_2nd_Control_Group,,
BI_C2_Digit,50.0,2.0,111,845.0,1.0,1.0,CBA,Raw_Data_III_Digit_Paradigm_2nd_Control_Group,,
BI_C2_Digit,50.0,2.0,112,2161.0,1.0,3.0,CBA,Raw_Data_III_Digit_Paradigm_2nd_Control_Group,,
BI_C2_Digit,50.0,2.0,113,1602.0,1.0,1.0,ABA,Raw_Data_III_Digit_Paradigm_2nd_Control_Group,,
BI_C2_Digit,50.0,2.0,114,866.0,1.0,2.0,CBA,Raw_Data_III_Digit_Paradigm_2nd_Control_Group,,
BI_C2_Digit,50.0,2.0,115,798.0,1.0,1.0,ABA,Raw_Data_III_Digit_Paradigm_2nd_Control_Group,,
BI_C2_Digit,50.0,2.0,116,2493.0,1.0,2.0,ABA,Raw_Data_III_Digit_Paradigm_2nd_Control_Group,,
BI_C2_Digit,50.0,2.0,117,1249.0,1.0,1.0,ABA,Raw_Data_III_Digit_Paradigm_2nd_Control_Group,,
BI_C2_Digit,50.0,2.0,118,3919.0,1.0,2.0,ABA,Raw_Data_III_Digit_Paradigm_2nd_Control_Group,,
BI_C2_Digit,50.0,2.0,119,2051.0,1.0,1.0,ABA,Raw_Data_III_Digit_Paradigm_2nd_Control_Group,,
BI_C2_Digit,50.0,2.0,120,1192.0,1.0,2.0,ABA,Raw_Data_III_Digit_Paradigm_2nd_Control_Group,,
BI_C2_Digit,50.0,3.0,1,2517.0,1.0,3.0,0.0,Raw_Data_III_Digit_Paradigm_2nd_Control_Group,,
BI_C2_Digit,50.0,3.0,2,4143.0,1.0,2.0,0.0,Raw_Data_III_Digit_Paradigm_2nd_Control_Group,,
BI_C2_Digit,50.0,3.0,3,2962.0,1.0,3.0,ABA,Raw_Data_III_Digit_Paradigm_2nd_Control_Group,,
BI_C2_Digit,50.0,3.0,4,932.0,1.0,2.0,ABA,Raw_Data_III_Digit_Paradigm_2nd_Control_Group,,
BI_C2_Digit,50.0,3.0,5,2238.0,1.0,3.0,ABA,Raw_Data_III_Digit_Paradigm_2nd_Control_Group,,
BI_C2_Digit,50.0,3.0,6,811.0,1.0,2.0,ABA,Raw_Data_III_Digit_Paradigm_2nd_Control_Group,,
BI_C2_Digit,50.0,3.0,7,1170.0,1.0,3.0,ABA,Raw_Data_III_Digit_Paradigm_2nd_Control_Group,,
BI_C2_Digit,50.0,3.0,8,1530.0,1.0,2.0,ABA,Raw_Data_III_Digit_Paradigm_2nd_Control_Group,,
BI_C2_Digit,50.0,3.0,9,2774.0,1.0,1.0,CBA,Raw_Data_III_Digit_Paradigm_2nd_Control_Group,,
BI_C2_Digit,50.0,3.0,10,1623.0,1.0,2.0,ABA,Raw_Data_III_Digit_Paradigm_2nd_Control_Group,,
BI_C2_Digit,50.0,3.0,11,2046.0,1.0,1.0,ABA,Raw_Data_III_Digit_Paradigm_2nd_Control_Group,,
BI_C2_Digit,50.0,3.0,12,2333.0,0.0,2.0,ABA,Raw_Data_III_Digit_Paradigm_2nd_Control_Group,,
BI_C2_Digit,50.0,3.0,13,1108.0,1.0,1.0,ABA,Raw_Data_III_Digit_Paradigm_2nd_Control_Group,,
BI_C2_Digit,50.0,3.0,14,1614.0,1.0,3.0,CBA,Raw_Data_III_Digit_Paradigm_2nd_Control_Group,,
BI_C2_Digit,50.0,3.0,15,877.0,1.0,1.0,ABA,Raw_Data_III_Digit_Paradigm_2nd_Control_Group,,
BI_C2_Digit,50.0,3.0,16,1337.0,1.0,3.0,ABA,Raw_Data_III_Digit_Paradigm_2nd_Control_Group,,
BI_C2_Digit,50.0,3.0,17,2051.0,1.0,2.0,CBA,Raw_Data_III_Digit_Paradigm_2nd_Control_Group,,
BI_C2_Digit,50.0,3.0,18,1633.0,1.0,1.0,CBA,Raw_Data_III_Digit_Paradigm_2nd_Control_Group,,
BI_C2_Digit,50.0,3.0,19,7582.0,1.0,3.0,CBA,Raw_Data_III_Digit_Paradigm_2nd_Control_Group,,
BI_C2_Digit,50.0,3.0,20,1265.0,1.0,2.0,CBA,Raw_Data_III_Digit_Paradigm_2nd_Control_Group,,
BI_C2_Digit,50.0,3.0,21,2022.0,1.0,1.0,CBA,Raw_Data_III_Digit_Paradigm_2nd_Control_Group,,
BI_C2_Digit,50.0,3.0,22,1820.0,1.0,3.0,CBA,Raw_Data_III_Digit_Paradigm_2nd_Control_Group,,
BI_C2_Digit,50.0,3.0,23,3211.0,1.0,2.0,CBA,Raw_Data_III_Digit_Paradigm_2nd_Control_Group,,
BI_C2_Digit,50.0,3.0,24,3034.0,1.0,3.0,ABA,Raw_Data_III_Digit_Paradigm_2nd_Control_Group,,
BI_C2_Digit,50.0,3.0,25,1920.0,1.0,2.0,ABA,Raw_Data_III_Digit_Paradigm_2nd_Control_Group,,
BI_C2_Digit,50.0,3.0,26,4379.0,1.0,1.0,CBA,Raw_Data_III_Digit_Paradigm_2nd_Control_Group,,
BI_C2_Digit,50.0,3.0,27,1205.0,1.0,3.0,CBA,Raw_Data_III_Digit_Paradigm_2nd_Control_Group,,
BI_C2_Digit,50.0,3.0,28,924.0,1.0,2.0,CBA,Raw_Data_III_Digit_Paradigm_2nd_Control_Group,,
BI_C2_Digit,50.0,3.0,29,1630.0,1.0,3.0,ABA,Raw_Data_III_Digit_Paradigm_2nd_Control_Group,,
BI_C2_Digit,50.0,3.0,30,909.0,1.0,1.0,CBA,Raw_Data_III_Digit_Paradigm_2nd_Control_Group,,
BI_C2_Digit,50.0,3.0,31,3969.0,1.0,3.0,ABA,Raw_Data_III_Digit_Paradigm_2nd_Control_Group,,
BI_C2_Digit,50.0,3.0,32,868.0,1.0,1.0,ABA,Raw_Data_III_Digit_Paradigm_2nd_Control_Group,,
BI_C2_Digit,50.0,3.0,33,2904.0,1.0,2.0,CBA,Raw_Data_III_Digit_Paradigm_2nd_Control_Group,,
BI_C2_Digit,50.0,3.0,34,1245.0,1.0,3.0,CBA,Raw_Data_III_Digit_Paradigm_2nd_Control_Group,,
BI_C2_Digit,50.0,3.0,35,667.0,1.0,1.0,CBA,Raw_Data_III_Digit_Paradigm_2nd_Control_Group,,
BI_C2_Digit,50.0,3.0,36,1736.0,1.0,2.0,CBA,Raw_Data_III_Digit_Paradigm_2nd_Control_Group,,
BI_C2_Digit,50.0,3.0,37,2330.0,1.0,3.0,CBA,Raw_Data_III_Digit_Paradigm_2nd_Control_Group,,
BI_C2_Digit,50.0,3.0,38,1310.0,1.0,1.0,CBA,Raw_Data_III_Digit_Paradigm_2nd_Control_Group,,
BI_C2_Digit,50.0,3.0,39,2178.0,1.0,2.0,CBA,Raw_Data_III_Digit_Paradigm_2nd_Control_Group,,
BI_C2_Digit,50.0,3.0,40,643.0,1.0,1.0,ABA,Raw_Data_III_Digit_Paradigm_2nd_Control_Group,,
BI_C2_Digit,50.0,3.0,41,1465.0,1.0,2.0,ABA,Raw_Data_III_Digit_Paradigm_2nd_Control_Group,,
BI_C2_Digit,50.0,3.0,42,814.0,1.0,3.0,CBA,Raw_Data_III_Digit_Paradigm_2nd_Control_Group,,
BI_C2_Digit,50.0,3.0,43,822.0,1.0,1.0,CBA,Raw_Data_III_Digit_Paradigm_2nd_Control_Group,,
BI_C2_Digit,50.0,3.0,44,2277.0,1.0,2.0,CBA,Raw_Data_III_Digit_Paradigm_2nd_Control_Group,,
BI_C2_Digit,50.0,3.0,45,1083.0,1.0,1.0,ABA,Raw_Data_III_Digit_Paradigm_2nd_Control_Group,,
BI_C2_Digit,50.0,3.0,46,1407.0,1.0,3.0,CBA,Raw_Data_III_Digit_Paradigm_2nd_Control_Group,,
BI_C2_Digit,50.0,3.0,47,575.0,1.0,1.0,ABA,Raw_Data_III_Digit_Paradigm_2nd_Control_Group,,
BI_C2_Digit,50.0,3.0,48,1096.0,1.0,3.0,ABA,Raw_Data_III_Digit_Paradigm_2nd_Control_Group,,
BI_C2_Digit,50.0,3.0,49,1732.0,1.0,1.0,ABA,Raw_Data_III_Digit_Paradigm_2nd_Control_Group,,
BI_C2_Digit,50.0,3.0,50,1488.0,1.0,3.0,ABA,Raw_Data_III_Digit_Paradigm_2nd_Control_Group,,
BI_C2_Digit,50.0,3.0,51,1379.0,1.0,2.0,CBA,Raw_Data_III_Digit_Paradigm_2nd_Control_Group,,
BI_C2_Digit,50.0,3.0,52,1980.0,1.0,1.0,CBA,Raw_Data_III_Digit_Paradigm_2nd_Control_Group,,
BI_C2_Digit,50.0,3.0,53,3142.0,1.0,2.0,ABA,Raw_Data_III_Digit_Paradigm_2nd_Control_Group,,
BI_C2_Digit,50.0,3.0,54,890.0,1.0,3.0,CBA,Raw_Data_III_Digit_Paradigm_2nd_Control_Group,,
BI_C2_Digit,50.0,3.0,55,1350.0,1.0,2.0,ABA,Raw_Data_III_Digit_Paradigm_2nd_Control_Group,,
BI_C2_Digit,50.0,3.0,56,1264.0,1.0,1.0,CBA,Raw_Data_III_Digit_Paradigm_2nd_Control_Group,,
BI_C2_Digit,50.0,3.0,57,4269.0,1.0,2.0,ABA,Raw_Data_III_Digit_Paradigm_2nd_Control_Group,,
BI_C2_Digit,50.0,3.0,58,1252.0,1.0,1.0,ABA,Raw_Data_III_Digit_Paradigm_2nd_Control_Group,,
BI_C2_Digit,50.0,3.0,59,3298.0,1.0,2.0,ABA,Raw_Data_III_Digit_Paradigm_2nd_Control_Group,,
BI_C2_Digit,50.0,3.0,60,552.0,1.0,1.0,ABA,Raw_Data_III_Digit_Paradigm_2nd_Control_Group,,
BI_C2_Digit,50.0,3.0,61,914.0,1.0,2.0,ABA,Raw_Data_III_Digit_Paradigm_2nd_Control_Group,,
BI_C2_Digit,50.0,3.0,62,837.0,1.0,1.0,ABA,Raw_Data_III_Digit_Paradigm_2nd_Control_Group,,
BI_C2_Digit,50.0,3.0,63,3747.0,1.0,3.0,CBA,Raw_Data_III_Digit_Paradigm_2nd_Control_Group,,
BI_C2_Digit,50.0,3.0,64,1727.0,1.0,2.0,CBA,Raw_Data_III_Digit_Paradigm_2nd_Control_Group,,
BI_C2_Digit,50.0,3.0,65,947.0,1.0,1.0,CBA,Raw_Data_III_Digit_Paradigm_2nd_Control_Group,,
BI_C2_Digit,50.0,3.0,66,3253.0,1.0,2.0,ABA,Raw_Data_III_Digit_Paradigm_2nd_Control_Group,,
BI_C2_Digit,50.0,3.0,67,877.0,1.0,1.0,ABA,Raw_Data_III_Digit_Paradigm_2nd_Control_Group,,
BI_C2_Digit,50.0,3.0,68,977.0,1.0,3.0,CBA,Raw_Data_III_Digit_Paradigm_2nd_Control_Group,,
BI_C2_Digit,50.0,3.0,69,1098.0,1.0,2.0,CBA,Raw_Data_III_Digit_Paradigm_2nd_Control_Group,,
BI_C2_Digit,50.0,3.0,70,598.0,1.0,1.0,CBA,Raw_Data_III_Digit_Paradigm_2nd_Control_Group,,
BI_C2_Digit,50.0,3.0,71,3750.0,1.0,3.0,CBA,Raw_Data_III_Digit_Paradigm_2nd_Control_Group,,
BI_C2_Digit,50.0,3.0,72,690.0,1.0,2.0,CBA,Raw_Data_III_Digit_Paradigm_2nd_Control_Group,,
BI_C2_Digit,50.0,3.0,73,678.0,1.0,1.0,CBA,Raw_Data_III_Digit_Paradigm_2nd_Control_Group,,
BI_C2_Digit,50.0,3.0,74,1714.0,1.0,2.0,ABA,Raw_Data_III_Digit_Paradigm_2nd_Control_Group,,
BI_C2_Digit,50.0,3.0,75,983.0,1.0,3.0,CBA,Raw_Data_III_Digit_Paradigm_2nd_Control_Group,,
BI_C2_Digit,50.0,3.0,76,1576.0,1.0,2.0,ABA,Raw_Data_III_Digit_Paradigm_2nd_Control_Group,,
BI_C2_Digit,50.0,3.0,77,1792.0,1.0,3.0,ABA,Raw_Data_III_Digit_Paradigm_2nd_Control_Group,,
BI_C2_Digit,50.0,3.0,78,2009.0,1.0,2.0,ABA,Raw_Data_III_Digit_Paradigm_2nd_Control_Group,,
BI_C2_Digit,50.0,3.0,79,2529.0,1.0,1.0,CBA,Raw_Data_III_Digit_Paradigm_2nd_Control_Group,,
BI_C2_Digit,50.0,3.0,80,1469.0,1.0,2.0,ABA,Raw_Data_III_Digit_Paradigm_2nd_Control_Group,,
BI_C2_Digit,50.0,3.0,81,1954.0,1.0,3.0,CBA,Raw_Data_III_Digit_Paradigm_2nd_Control_Group,,
BI_C2_Digit,50.0,3.0,82,1052.0,1.0,2.0,ABA,Raw_Data_III_Digit_Paradigm_2nd_Control_Group,,
BI_C2_Digit,50.0,3.0,83,2083.0,1.0,1.0,CBA,Raw_Data_III_Digit_Paradigm_2nd_Control_Group,,
BI_C2_Digit,50.0,3.0,84,1856.0,1.0,3.0,CBA,Raw_Data_III_Digit_Paradigm_2nd_Control_Group,,
BI_C2_Digit,50.0,3.0,85,1765.0,1.0,2.0,CBA,Raw_Data_III_Digit_Paradigm_2nd_Control_Group,,
BI_C2_Digit,50.0,3.0,86,1352.0,1.0,1.0,CBA,Raw_Data_III_Digit_Paradigm_2nd_Control_Group,,
BI_C2_Digit,50.0,3.0,87,3218.0,1.0,2.0,ABA,Raw_Data_III_Digit_Paradigm_2nd_Control_Group,,
BI_C2_Digit,50.0,3.0,88,4267.0,1.0,1.0,ABA,Raw_Data_III_Digit_Paradigm_2nd_Control_Group,,
BI_C2_Digit,50.0,3.0,89,2906.0,1.0,3.0,CBA,Raw_Data_III_Digit_Paradigm_2nd_Control_Group,,
BI_C2_Digit,50.0,3.0,90,2143.0,1.0,1.0,ABA,Raw_Data_III_Digit_Paradigm_2nd_Control_Group,,
BI_C2_Digit,50.0,3.0,91,1322.0,1.0,2.0,CBA,Raw_Data_III_Digit_Paradigm_2nd_Control_Group,,
BI_C2_Digit,50.0,3.0,92,4052.0,1.0,1.0,ABA,Raw_Data_III_Digit_Paradigm_2nd_Control_Group,,
BI_C2_Digit,50.0,3.0,93,1036.0,1.0,3.0,CBA,Raw_Data_III_Digit_Paradigm_2nd_Control_Group,,
BI_C2_Digit,50.0,3.0,94,1595.0,1.0,2.0,CBA,Raw_Data_III_Digit_Paradigm_2nd_Control_Group,,
BI_C2_Digit,50.0,3.0,95,1460.0,1.0,3.0,ABA,Raw_Data_III_Digit_Paradigm_2nd_Control_Group,,
BI_C2_Digit,50.0,3.0,96,3665.0,1.0,1.0,CBA,Raw_Data_III_Digit_Paradigm_2nd_Control_Group,,
BI_C2_Digit,50.0,3.0,97,1584.0,1.0,3.0,ABA,Raw_Data_III_Digit_Paradigm_2nd_Control_Group,,
BI_C2_Digit,50.0,3.0,98,969.0,1.0,1.0,ABA,Raw_Data_III_Digit_Paradigm_2nd_Control_Group,,
BI_C2_Digit,50.0,3.0,99,2467.0,1.0,3.0,ABA,Raw_Data_III_Digit_Paradigm_2nd_Control_Group,,
BI_C2_Digit,50.0,3.0,100,1378.0,1.0,1.0,ABA,Raw_Data_III_Digit_Paradigm_2nd_Control_Group,,
BI_C2_Digit,50.0,3.0,101,1666.0,1.0,2.0,CBA,Raw_Data_III_Digit_Paradigm_2nd_Control_Group,,
BI_C2_Digit,50.0,3.0,102,2456.0,1.0,3.0,CBA,Raw_Data_III_Digit_Paradigm_2nd_Control_Group,,
BI_C2_Digit,50.0,3.0,103,2247.0,1.0,1.0,CBA,Raw_Data_III_Digit_Paradigm_2nd_Control_Group,,
BI_C2_Digit,50.0,3.0,104,2077.0,1.0,3.0,ABA,Raw_Data_III_Digit_Paradigm_2nd_Control_Group,,
BI_C2_Digit,50.0,3.0,105,2546.0,1.0,2.0,CBA,Raw_Data_III_Digit_Paradigm_2nd_Control_Group,,
BI_C2_Digit,50.0,3.0,106,3054.0,1.0,3.0,ABA,Raw_Data_III_Digit_Paradigm_2nd_Control_Group,,
BI_C2_Digit,50.0,3.0,107,2276.0,1.0,2.0,ABA,Raw_Data_III_Digit_Paradigm_2nd_Control_Group,,
BI_C2_Digit,50.0,3.0,108,1633.0,1.0,1.0,CBA,Raw_Data_III_Digit_Paradigm_2nd_Control_Group,,
BI_C2_Digit,50.0,3.0,109,2081.0,1.0,3.0,CBA,Raw_Data_III_Digit_Paradigm_2nd_Control_Group,,
BI_C2_Digit,50.0,3.0,110,1414.0,1.0,1.0,ABA,Raw_Data_III_Digit_Paradigm_2nd_Control_Group,,
BI_C2_Digit,50.0,3.0,111,750.0,1.0,3.0,ABA,Raw_Data_III_Digit_Paradigm_2nd_Control_Group,,
BI_C2_Digit,50.0,3.0,112,1112.0,1.0,1.0,ABA,Raw_Data_III_Digit_Paradigm_2nd_Control_Group,,
BI_C2_Digit,50.0,3.0,113,8003.0,1.0,3.0,ABA,Raw_Data_III_Digit_Paradigm_2nd_Control_Group,,
BI_C2_Digit,50.0,3.0,114,1471.0,1.0,2.0,CBA,Raw_Data_III_Digit_Paradigm_2nd_Control_Group,,
BI_C2_Digit,50.0,3.0,115,733.0,1.0,1.0,CBA,Raw_Data_III_Digit_Paradigm_2nd_Control_Group,,
BI_C2_Digit,50.0,3.0,116,2503.0,1.0,3.0,CBA,Raw_Data_III_Digit_Paradigm_2nd_Control_Group,,
BI_C2_Digit,50.0,3.0,117,988.0,1.0,1.0,ABA,Raw_Data_III_Digit_Paradigm_2nd_Control_Group,,
BI_C2_Digit,50.0,3.0,118,1148.0,1.0,3.0,ABA,Raw_Data_III_Digit_Paradigm_2nd_Control_Group,,
BI_C2_Digit,50.0,3.0,119,1511.0,1.0,2.0,CBA,Raw_Data_III_Digit_Paradigm_2nd_Control_Group,,
BI_C2_Digit,50.0,3.0,120,1354.0,1.0,3.0,ABA,Raw_Data_III_Digit_Paradigm_2nd_Control_Group,,
BI_C2_Digit,50.0,4.0,1,1701.0,1.0,2.0,0.0,Raw_Data_III_Digit_Paradigm_2nd_Control_Group,,
BI_C2_Digit,50.0,4.0,2,690.0,1.0,1.0,0.0,Raw_Data_III_Digit_Paradigm_2nd_Control_Group,,
BI_C2_Digit,50.0,4.0,3,1949.0,1.0,2.0,ABA,Raw_Data_III_Digit_Paradigm_2nd_Control_Group,,
BI_C2_Digit,50.0,4.0,4,1424.0,1.0,3.0,CBA,Raw_Data_III_Digit_Paradigm_2nd_Control_Group,,
BI_C2_Digit,50.0,4.0,5,1287.0,1.0,2.0,ABA,Raw_Data_III_Digit_Paradigm_2nd_Control_Group,,
BI_C2_Digit,50.0,4.0,6,652.0,1.0,1.0,CBA,Raw_Data_III_Digit_Paradigm_2nd_Control_Group,,
BI_C2_Digit,50.0,4.0,7,1075.0,1.0,2.0,ABA,Raw_Data_III_Digit_Paradigm_2nd_Control_Group,,
BI_C2_Digit,50.0,4.0,8,3119.0,1.0,3.0,CBA,Raw_Data_III_Digit_Paradigm_2nd_Control_Group,,
BI_C2_Digit,50.0,4.0,9,1084.0,1.0,1.0,CBA,Raw_Data_III_Digit_Paradigm_2nd_Control_Group,,
BI_C2_Digit,50.0,4.0,10,1409.0,1.0,2.0,CBA,Raw_Data_III_Digit_Paradigm_2nd_Control_Group,,
BI_C2_Digit,50.0,4.0,11,1113.0,0.0,3.0,CBA,Raw_Data_III_Digit_Paradigm_2nd_Control_Group,,
BI_C2_Digit,50.0,4.0,12,1056.0,1.0,1.0,CBA,Raw_Data_III_Digit_Paradigm_2nd_Control_Group,,
BI_C2_Digit,50.0,4.0,13,4965.0,1.0,3.0,ABA,Raw_Data_III_Digit_Paradigm_2nd_Control_Group,,
BI_C2_Digit,50.0,4.0,14,1569.0,1.0,2.0,CBA,Raw_Data_III_Digit_Paradigm_2nd_Control_Group,,
BI_C2_Digit,50.0,4.0,15,1307.0,1.0,1.0,CBA,Raw_Data_III_Digit_Paradigm_2nd_Control_Group,,
BI_C2_Digit,50.0,4.0,16,966.0,1.0,3.0,CBA,Raw_Data_III_Digit_Paradigm_2nd_Control_Group,,
BI_C2_Digit,50.0,4.0,17,2096.0,1.0,1.0,ABA,Raw_Data_III_Digit_Paradigm_2nd_Control_Group,,
BI_C2_Digit,50.0,4.0,18,3173.0,1.0,3.0,ABA,Raw_Data_III_Digit_Paradigm_2nd_Control_Group,,
BI_C2_Digit,50.0,4.0,19,1183.0,1.0,1.0,ABA,Raw_Data_III_Digit_Paradigm_2nd_Control_Group,,
BI_C2_Digit,50.0,4.0,20,2056.0,1.0,3.0,ABA,Raw_Data_III_Digit_Paradigm_2nd_Control_Group,,
BI_C2_Digit,50.0,4.0,21,1046.0,1.0,1.0,ABA,Raw_Data_III_Digit_Paradigm_2nd_Control_Group,,
BI_C2_Digit,50.0,4.0,22,3100.0,1.0,3.0,ABA,Raw_Data_III_Digit_Paradigm_2nd_Control_Group,,
BI_C2_Digit,50.0,4.0,23,5001.0,1.0,2.0,CBA,Raw_Data_III_Digit_Paradigm_2nd_Control_Group,,
BI_C2_Digit,50.0,4.0,24,2467.0,1.0,1.0,CBA,Raw_Data_III_Digit_Paradigm_2nd_Control_Group,,
BI_C2_Digit,50.0,4.0,25,2418.0,1.0,2.0,ABA,Raw_Data_III_Digit_Paradigm_2nd_Control_Group,,
BI_C2_Digit,50.0,4.0,26,4754.0,1.0,3.0,CBA,Raw_Data_III_Digit_Paradigm_2nd_Control_Group,,
BI_C2_Digit,50.0,4.0,27,1653.0,1.0,2.0,ABA,Raw_Data_III_Digit_Paradigm_2nd_Control_Group,,
BI_C2_Digit,50.0,4.0,28,3124.0,1.0,1.0,CBA,Raw_Data_III_Digit_Paradigm_2nd_Control_Group,,
BI_C2_Digit,50.0,4.0,29,2591.0,1.0,3.0,CBA,Raw_Data_III_Digit_Paradigm_2nd_Control_Group,,
BI_C2_Digit,50.0,4.0,30,2305.0,1.0,1.0,ABA,Raw_Data_III_Digit_Paradigm_2nd_Control_Group,,
BI_C2_Digit,50.0,4.0,31,3597.0,1.0,3.0,ABA,Raw_Data_III_Digit_Paradigm_2nd_Control_Group,,
BI_C2_Digit,50.0,4.0,32,1855.0,0.0,2.0,CBA,Raw_Data_III_Digit_Paradigm_2nd_Control_Group,,
BI_C2_Digit,50.0,4.0,33,1272.0,1.0,1.0,CBA,Raw_Data_III_Digit_Paradigm_2nd_Control_Group,,
BI_C2_Digit,50.0,4.0,34,3030.0,1.0,2.0,ABA,Raw_Data_III_Digit_Paradigm_2nd_Control_Group,,
BI_C2_Digit,50.0,4.0,35,5470.0,1.0,3.0,CBA,Raw_Data_III_Digit_Paradigm_2nd_Control_Group,,
BI_C2_Digit,50.0,4.0,36,1044.0,1.0,1.0,CBA,Raw_Data_III_Digit_Paradigm_2nd_Control_Group,,
BI_C2_Digit,50.0,4.0,37,1107.0,1.0,2.0,CBA,Raw_Data_III_Digit_Paradigm_2nd_Control_Group,,
BI_C2_Digit,50.0,4.0,38,2759.0,1.0,1.0,ABA,Raw_Data_III_Digit_Paradigm_2nd_Control_Group,,
BI_C2_Digit,50.0,4.0,39,2945.0,1.0,3.0,CBA,Raw_Data_III_Digit_Paradigm_2nd_Control_Group,,
BI_C2_Digit,50.0,4.0,40,1068.0,1.0,1.0,ABA,Raw_Data_III_Digit_Paradigm_2nd_Control_Group,,
BI_C2_Digit,50.0,4.0,41,2530.0,1.0,3.0,ABA,Raw_Data_III_Digit_Paradigm_2nd_Control_Group,,
BI_C2_Digit,50.0,4.0,42,1022.0,1.0,1.0,ABA,Raw_Data_III_Digit_Paradigm_2nd_Control_Group,,
BI_C2_Digit,50.0,4.0,43,1253.0,1.0,3.0,ABA,Raw_Data_III_Digit_Paradigm_2nd_Control_Group,,
BI_C2_Digit,50.0,4.0,44,1675.0,1.0,1.0,ABA,Raw_Data_III_Digit_Paradigm_2nd_Control_Group,,
BI_C2_Digit,50.0,4.0,45,5824.0,1.0,2.0,CBA,Raw_Data_III_Digit_Paradigm_2nd_Control_Group,,
BI_C2_Digit,50.0,4.0,46,1857.0,1.0,1.0,ABA,Raw_Data_III_Digit_Paradigm_2nd_Control_Group,,
BI_C2_Digit,50.0,4.0,47,1160.0,1.0,2.0,ABA,Raw_Data_III_Digit_Paradigm_2nd_Control_Group,,
BI_C2_Digit,50.0,4.0,48,4840.0,1.0,3.0,CBA,Raw_Data_III_Digit_Paradigm_2nd_Control_Group,,
BI_C2_Digit,50.0,4.0,49,3737.0,1.0,2.0,ABA,Raw_Data_III_Digit_Paradigm_2nd_Control_Group,,
BI_C2_Digit,50.0,4.0,50,10900.0,1.0,3.0,ABA,Raw_Data_III_Digit_Paradigm_2nd_Control_Group,,
BI_C2_Digit,50.0,4.0,51,477.0,1.0,1.0,CBA,Raw_Data_III_Digit_Paradigm_2nd_Control_Group,,
BI_C2_Digit,50.0,4.0,52,1050.0,1.0,3.0,ABA,Raw_Data_III_Digit_Paradigm_2nd_Control_Group,,
BI_C2_Digit,50.0,4.0,53,1095.0,1.0,2.0,CBA,Raw_Data_III_Digit_Paradigm_2nd_Control_Group,,
BI_C2_Digit,50.0,4.0,54,628.0,1.0,1.0,CBA,Raw_Data_III_Digit_Paradigm_2nd_Control_Group,,
BI_C2_Digit,50.0,4.0,55,771.0,1.0,2.0,ABA,Raw_Data_III_Digit_Paradigm_2nd_Control_Group,,
BI_C2_Digit,50.0,4.0,56,1044.0,1.0,1.0,ABA,Raw_Data_III_Digit_Paradigm_2nd_Control_Group,,
BI_C2_Digit,50.0,4.0,57,2843.0,1.0,3.0,CBA,Raw_Data_III_Digit_Paradigm_2nd_Control_Group,,
BI_C2_Digit,50.0,4.0,58,1233.0,1.0,1.0,ABA,Raw_Data_III_Digit_Paradigm_2nd_Control_Group,,
BI_C2_Digit,50.0,4.0,59,2712.0,1.0,2.0,CBA,Raw_Data_III_Digit_Paradigm_2nd_Control_Group,,
BI_C2_Digit,50.0,4.0,60,3429.0,1.0,3.0,CBA,Raw_Data_III_Digit_Paradigm_2nd_Control_Group,,
BI_C2_Digit,50.0,4.0,61,1405.0,1.0,1.0,CBA,Raw_Data_III_Digit_Paradigm_2nd_Control_Group,,
BI_C2_Digit,50.0,4.0,62,3076.0,1.0,3.0,ABA,Raw_Data_III_Digit_Paradigm_2nd_Control_Group,,
BI_C2_Digit,50.0,4.0,63,1515.0,1.0,1.0,ABA,Raw_Data_III_Digit_Paradigm_2nd_Control_Group,,
BI_C2_Digit,50.0,4.0,64,3319.0,1.0,2.0,CBA,Raw_Data_III_Digit_Paradigm_2nd_Control_Group,,
BI_C2_Digit,50.0,4.0,65,4683.0,1.0,3.0,CBA,Raw_Data_III_Digit_Paradigm_2nd_Control_Group,,
BI_C2_Digit,50.0,4.0,66,634.0,1.0,1.0,CBA,Raw_Data_III_Digit_Paradigm_2nd_Control_Group,,
BI_C2_Digit,50.0,4.0,67,857.0,1.0,3.0,ABA,Raw_Data_III_Digit_Paradigm_2nd_Control_Group,,
BI_C2_Digit,50.0,4.0,68,774.0,1.0,2.0,CBA,Raw_Data_III_Digit_Paradigm_2nd_Control_Group,,
BI_C2_Digit,50.0,4.0,69,1039.0,1.0,1.0,CBA,Raw_Data_III_Digit_Paradigm_2nd_Control_Group,,
BI_C2_Digit,50.0,4.0,70,1821.0,1.0,3.0,CBA,Raw_Data_III_Digit_Paradigm_2nd_Control_Group,,
BI_C2_Digit,50.0,4.0,71,732.0,1.0,1.0,ABA,Raw_Data_III_Digit_Paradigm_2nd_Control_Group,,
BI_C2_Digit,50.0,4.0,72,2415.0,1.0,2.0,CBA,Raw_Data_III_Digit_Paradigm_2nd_Control_Group,,
BI_C2_Digit,50.0,4.0,73,1304.0,1.0,1.0,ABA,Raw_Data_III_Digit_Paradigm_2nd_Control_Group,,
BI_C2_Digit,50.0,4.0,74,1203.0,1.0,2.0,ABA,Raw_Data_III_Digit_Paradigm_2nd_Control_Group,,
BI_C2_Digit,50.0,4.0,75,3076.0,1.0,3.0,CBA,Raw_Data_III_Digit_Paradigm_2nd_Control_Group,,
BI_C2_Digit,50.0,4.0,76,1226.0,1.0,1.0,CBA,Raw_Data_III_Digit_Paradigm_2nd_Control_Group,,
BI_C2_Digit,50.0,4.0,77,2561.0,1.0,2.0,CBA,Raw_Data_III_Digit_Paradigm_2nd_Control_Group,,
BI_C2_Digit,50.0,4.0,78,1187.0,1.0,1.0,ABA,Raw_Data_III_Digit_Paradigm_2nd_Control_Group,,
BI_C2_Digit,50.0,4.0,79,16923.0,1.0,3.0,CBA,Raw_Data_III_Digit_Paradigm_2nd_Control_Group,,
BI_C2_Digit,50.0,4.0,80,1055.0,1.0,2.0,CBA,Raw_Data_III_Digit_Paradigm_2nd_Control_Group,,
BI_C2_Digit,50.0,4.0,81,2613.0,1.0,3.0,ABA,Raw_Data_III_Digit_Paradigm_2nd_Control_Group,,
BI_C2_Digit,50.0,4.0,82,1181.0,1.0,2.0,ABA,Raw_Data_III_Digit_Paradigm_2nd_Control_Group,,
BI_C2_Digit,50.0,4.0,83,1853.0,1.0,3.0,ABA,Raw_Data_III_Digit_Paradigm_2nd_Control_Group,,
BI_C2_Digit,50.0,4.0,84,1708.0,1.0,2.0,ABA,Raw_Data_III_Digit_Paradigm_2nd_Control_Group,,
BI_C2_Digit,50.0,4.0,85,1632.0,1.0,1.0,CBA,Raw_Data_III_Digit_Paradigm_2nd_Control_Group,,
BI_C2_Digit,50.0,4.0,86,1552.0,1.0,2.0,ABA,Raw_Data_III_Digit_Paradigm_2nd_Control_Group,,
BI_C2_Digit,50.0,4.0,87,1577.0,1.0,3.0,CBA,Raw_Data_III_Digit_Paradigm_2nd_Control_Group,,
BI_C2_Digit,50.0,4.0,88,1067.0,1.0,1.0,CBA,Raw_Data_III_Digit_Paradigm_2nd_Control_Group,,
BI_C2_Digit,50.0,4.0,89,10664.0,1.0,3.0,ABA,Raw_Data_III_Digit_Paradigm_2nd_Control_Group,,
BI_C2_Digit,50.0,4.0,90,1187.0,1.0,1.0,ABA,Raw_Data_III_Digit_Paradigm_2nd_Control_Group,,
BI_C2_Digit,50.0,4.0,91,2675.0,1.0,3.0,ABA,Raw_Data_III_Digit_Paradigm_2nd_Control_Group,,
BI_C2_Digit,50.0,4.0,92,977.0,1.0,1.0,ABA,Raw_Data_III_Digit_Paradigm_2nd_Control_Group,,
BI_C2_Digit,50.0,4.0,93,1370.0,1.0,2.0,CBA,Raw_Data_III_Digit_Paradigm_2nd_Control_Group,,
BI_C2_Digit,50.0,4.0,94,1059.0,1.0,1.0,ABA,Raw_Data_III_Digit_Paradigm_2nd_Control_Group,,
BI_C2_Digit,50.0,4.0,95,2073.0,1.0,2.0,ABA,Raw_Data_III_Digit_Paradigm_2nd_Control_Group,,
BI_C2_Digit,50.0,4.0,96,2215.0,1.0,3.0,CBA,Raw_Data_III_Digit_Paradigm_2nd_Control_Group,,
BI_C2_Digit,50.0,4.0,97,1647.0,1.0,2.0,ABA,Raw_Data_III_Digit_Paradigm_2nd_Control_Group,,
BI_C2_Digit,50.0,4.0,98,3101.0,1.0,3.0,ABA,Raw_Data_III_Digit_Paradigm_2nd_Control_Group,,
BI_C2_Digit,50.0,4.0,99,850.0,1.0,2.0,ABA,Raw_Data_III_Digit_Paradigm_2nd_Control_Group,,
BI_C2_Digit,50.0,4.0,100,2297.0,1.0,3.0,ABA,Raw_Data_III_Digit_Paradigm_2nd_Control_Group,,
BI_C2_Digit,50.0,4.0,101,10629.0,1.0,2.0,ABA,Raw_Data_III_Digit_Paradigm_2nd_Control_Group,,
BI_C2_Digit,50.0,4.0,102,633.0,1.0,1.0,CBA,Raw_Data_III_Digit_Paradigm_2nd_Control_Group,,
BI_C2_Digit,50.0,4.0,103,1456.0,1.0,3.0,CBA,Raw_Data_III_Digit_Paradigm_2nd_Control_Group,,
BI_C2_Digit,50.0,4.0,104,1925.0,1.0,2.0,CBA,Raw_Data_III_Digit_Paradigm_2nd_Control_Group,,
BI_C2_Digit,50.0,4.0,105,665.0,1.0,1.0,CBA,Raw_Data_III_Digit_Paradigm_2nd_Control_Group,,
BI_C2_Digit,50.0,4.0,106,1614.0,1.0,3.0,CBA,Raw_Data_III_Digit_Paradigm_2nd_Control_Group,,
BI_C2_Digit,50.0,4.0,107,3862.0,1.0,2.0,CBA,Raw_Data_III_Digit_Paradigm_2nd_Control_Group,,
BI_C2_Digit,50.0,4.0,108,733.0,1.0,1.0,CBA,Raw_Data_III_Digit_Paradigm_2nd_Control_Group,,
BI_C2_Digit,50.0,4.0,109,1416.0,1.0,2.0,ABA,Raw_Data_III_Digit_Paradigm_2nd_Control_Group,,
BI_C2_Digit,50.0,4.0,110,1616.0,1.0,3.0,CBA,Raw_Data_III_Digit_Paradigm_2nd_Control_Group,,
BI_C2_Digit,50.0,4.0,111,2000.0,1.0,2.0,ABA,Raw_Data_III_Digit_Paradigm_2nd_Control_Group,,
BI_C2_Digit,50.0,4.0,112,1241.0,1.0,1.0,CBA,Raw_Data_III_Digit_Paradigm_2nd_Control_Group,,
BI_C2_Digit,50.0,4.0,113,1302.0,1.0,3.0,CBA,Raw_Data_III_Digit_Paradigm_2nd_Control_Group,,
BI_C2_Digit,50.0,4.0,114,1587.0,1.0,2.0,CBA,Raw_Data_III_Digit_Paradigm_2nd_Control_Group,,
BI_C2_Digit,50.0,4.0,115,1060.0,1.0,1.0,CBA,Raw_Data_III_Digit_Paradigm_2nd_Control_Group,,
BI_C2_Digit,50.0,4.0,116,1714.0,1.0,2.0,ABA,Raw_Data_III_Digit_Paradigm_2nd_Control_Group,,
BI_C2_Digit,50.0,4.0,117,3133.0,1.0,3.0,CBA,Raw_Data_III_Digit_Paradigm_2nd_Control_Group,,
BI_C2_Digit,50.0,4.0,118,1377.0,1.0,2.0,ABA,Raw_Data_III_Digit_Paradigm_2nd_Control_Group,,
BI_C2_Digit,50.0,4.0,119,2514.0,1.0,3.0,ABA,Raw_Data_III_Digit_Paradigm_2nd_Control_Group,,
BI_C2_Digit,50.0,4.0,120,1574.0,1.0,2.0,ABA,Raw_Data_III_Digit_Paradigm_2nd_Control_Group,,
BI_C2_Digit,51.0,1.0,1,743.0,0.0,3.0,0.0,Raw_Data_III_Digit_Paradigm_2nd_Control_Group,,
BI_C2_Digit,51.0,1.0,2,563.0,1.0,2.0,0.0,Raw_Data_III_Digit_Paradigm_2nd_Control_Group,,
BI_C2_Digit,51.0,1.0,3,819.0,1.0,3.0,ABA,Raw_Data_III_Digit_Paradigm_2nd_Control_Group,,
BI_C2_Digit,51.0,1.0,4,609.0,1.0,1.0,CBA,Raw_Data_III_Digit_Paradigm_2nd_Control_Group,,
BI_C2_Digit,51.0,1.0,5,944.0,1.0,3.0,ABA,Raw_Data_III_Digit_Paradigm_2nd_Control_Group,,
BI_C2_Digit,51.0,1.0,6,562.0,1.0,2.0,CBA,Raw_Data_III_Digit_Paradigm_2nd_Control_Group,,
BI_C2_Digit,51.0,1.0,7,410.0,1.0,1.0,CBA,Raw_Data_III_Digit_Paradigm_2nd_Control_Group,,
BI_C2_Digit,51.0,1.0,8,608.0,1.0,3.0,CBA,Raw_Data_III_Digit_Paradigm_2nd_Control_Group,,
BI_C2_Digit,51.0,1.0,9,623.0,1.0,1.0,ABA,Raw_Data_III_Digit_Paradigm_2nd_Control_Group,,
BI_C2_Digit,51.0,1.0,10,1149.0,1.0,3.0,ABA,Raw_Data_III_Digit_Paradigm_2nd_Control_Group,,
BI_C2_Digit,51.0,1.0,11,478.0,1.0,2.0,CBA,Raw_Data_III_Digit_Paradigm_2nd_Control_Group,,
BI_C2_Digit,51.0,1.0,12,371.0,1.0,1.0,CBA,Raw_Data_III_Digit_Paradigm_2nd_Control_Group,,
BI_C2_Digit,51.0,1.0,13,538.0,1.0,3.0,CBA,Raw_Data_III_Digit_Paradigm_2nd_Control_Group,,
BI_C2_Digit,51.0,1.0,14,723.0,1.0,2.0,CBA,Raw_Data_III_Digit_Paradigm_2nd_Control_Group,,
BI_C2_Digit,51.0,1.0,15,821.0,1.0,3.0,ABA,Raw_Data_III_Digit_Paradigm_2nd_Control_Group,,
BI_C2_Digit,51.0,1.0,16,404.0,1.0,1.0,CBA,Raw_Data_III_Digit_Paradigm_2nd_Control_Group,,
BI_C2_Digit,51.0,1.0,17,602.0,1.0,3.0,ABA,Raw_Data_III_Digit_Paradigm_2nd_Control_Group,,
BI_C2_Digit,51.0,1.0,18,1273.0,1.0,1.0,ABA,Raw_Data_III_Digit_Paradigm_2nd_Control_Group,,
BI_C2_Digit,51.0,1.0,19,477.0,0.0,2.0,CBA,Raw_Data_III_Digit_Paradigm_2nd_Control_Group,,
BI_C2_Digit,51.0,1.0,20,1188.0,1.0,3.0,CBA,Raw_Data_III_Digit_Paradigm_2nd_Control_Group,,
BI_C2_Digit,51.0,1.0,21,684.0,1.0,1.0,CBA,Raw_Data_III_Digit_Paradigm_2nd_Control_Group,,
BI_C2_Digit,51.0,1.0,22,552.0,1.0,3.0,ABA,Raw_Data_III_Digit_Paradigm_2nd_Control_Group,,
BI_C2_Digit,51.0,1.0,23,712.0,1.0,1.0,ABA,Raw_Data_III_Digit_Paradigm_2nd_Control_Group,,
BI_C2_Digit,51.0,1.0,24,651.0,0.0,2.0,CBA,Raw_Data_III_Digit_Paradigm_2nd_Control_Group,,
BI_C2_Digit,51.0,1.0,25,947.0,1.0,1.0,ABA,Raw_Data_III_Digit_Paradigm_2nd_Control_Group,,
BI_C2_Digit,51.0,1.0,26,836.0,0.0,2.0,ABA,Raw_Data_III_Digit_Paradigm_2nd_Control_Group,,
BI_C2_Digit,51.0,1.0,27,1302.0,1.0,3.0,CBA,Raw_Data_III_Digit_Paradigm_2nd_Control_Group,,
BI_C2_Digit,51.0,1.0,28,609.0,1.0,1.0,CBA,Raw_Data_III_Digit_Paradigm_2nd_Control_Group,,
BI_C2_Digit,51.0,1.0,29,816.0,1.0,3.0,ABA,Raw_Data_III_Digit_Paradigm_2nd_Control_Group,,
BI_C2_Digit,51.0,1.0,30,453.0,1.0,2.0,CBA,Raw_Data_III_Digit_Paradigm_2nd_Control_Group,,
BI_C2_Digit,51.0,1.0,31,482.0,1.0,1.0,CBA,Raw_Data_III_Digit_Paradigm_2nd_Control_Group,,
BI_C2_Digit,51.0,1.0,32,550.0,1.0,2.0,ABA,Raw_Data_III_Digit_Paradigm_2nd_Control_Group,,
BI_C2_Digit,51.0,1.0,33,430.0,1.0,3.0,CBA,Raw_Data_III_Digit_Paradigm_2nd_Control_Group,,
BI_C2_Digit,51.0,1.0,34,444.0,1.0,1.0,CBA,Raw_Data_III_Digit_Paradigm_2nd_Control_Group,,
BI_C2_Digit,51.0,1.0,35,649.0,1.0,3.0,ABA,Raw_Data_III_Digit_Paradigm_2nd_Control_Group,,
BI_C2_Digit,51.0,1.0,36,1277.0,1.0,2.0,CBA,Raw_Data_III_Digit_Paradigm_2nd_Control_Group,,
BI_C2_Digit,51.0,1.0,37,466.0,1.0,1.0,CBA,Raw_Data_III_Digit_Paradigm_2nd_Control_Group,,
BI_C2_Digit,51.0,1.0,38,1086.0,1.0,2.0,ABA,Raw_Data_III_Digit_Paradigm_2nd_Control_Group,,
BI_C2_Digit,51.0,1.0,39,770.0,1.0,3.0,CBA,Raw_Data_III_Digit_Paradigm_2nd_Control_Group,,
BI_C2_Digit,51.0,1.0,40,1210.0,1.0,2.0,ABA,Raw_Data_III_Digit_Paradigm_2nd_Control_Group,,
BI_C2_Digit,51.0,1.0,41,552.0,1.0,1.0,CBA,Raw_Data_III_Digit_Paradigm_2nd_Control_Group,,
BI_C2_Digit,51.0,1.0,42,577.0,1.0,2.0,ABA,Raw_Data_III_Digit_Paradigm_2nd_Control_Group,,
BI_C2_Digit,51.0,1.0,43,585.0,1.0,1.0,ABA,Raw_Data_III_Digit_Paradigm_2nd_Control_Group,,
BI_C2_Digit,51.0,1.0,44,697.0,1.0,3.0,CBA,Raw_Data_III_Digit_Paradigm_2nd_Control_Group,,
BI_C2_Digit,51.0,1.0,45,1155.0,1.0,2.0,CBA,Raw_Data_III_Digit_Paradigm_2nd_Control_Group,,
BI_C2_Digit,51.0,1.0,46,525.0,1.0,1.0,CBA,Raw_Data_III_Digit_Paradigm_2nd_Control_Group,,
BI_C2_Digit,51.0,1.0,47,542.0,1.0,2.0,ABA,Raw_Data_III_Digit_Paradigm_2nd_Control_Group,,
BI_C2_Digit,51.0,1.0,48,535.0,1.0,3.0,CBA,Raw_Data_III_Digit_Paradigm_2nd_Control_Group,,
BI_C2_Digit,51.0,1.0,49,889.0,1.0,2.0,ABA,Raw_Data_III_Digit_Paradigm_2nd_Control_Group,,
BI_C2_Digit,51.0,1.0,50,924.0,1.0,3.0,ABA,Raw_Data_III_Digit_Paradigm_2nd_Control_Group,,
BI_C2_Digit,51.0,1.0,51,1071.0,1.0,2.0,ABA,Raw_Data_III_Digit_Paradigm_2nd_Control_Group,,
BI_C2_Digit,51.0,1.0,52,827.0,1.0,1.0,CBA,Raw_Data_III_Digit_Paradigm_2nd_Control_Group,,
BI_C2_Digit,51.0,1.0,53,728.0,0.0,3.0,CBA,Raw_Data_III_Digit_Paradigm_2nd_Control_Group,,
BI_C2_Digit,51.0,1.0,54,1198.0,1.0,2.0,CBA,Raw_Data_III_Digit_Paradigm_2nd_Control_Group,,
BI_C2_Digit,51.0,1.0,55,741.0,1.0,3.0,ABA,Raw_Data_III_Digit_Paradigm_2nd_Control_Group,,
BI_C2_Digit,51.0,1.0,56,935.0,1.0,2.0,ABA,Raw_Data_III_Digit_Paradigm_2nd_Control_Group,,
BI_C2_Digit,51.0,1.0,57,1520.0,1.0,3.0,ABA,Raw_Data_III_Digit_Paradigm_2nd_Control_Group,,
BI_C2_Digit,51.0,1.0,58,884.0,1.0,2.0,ABA,Raw_Data_III_Digit_Paradigm_2nd_Control_Group,,
BI_C2_Digit,51.0,1.0,59,768.0,1.0,3.0,ABA,Raw_Data_III_Digit_Paradigm_2nd_Control_Group,,
BI_C2_Digit,51.0,1.0,60,824.0,0.0,2.0,ABA,Raw_Data_III_Digit_Paradigm_2nd_Control_Group,,
BI_C2_Digit,51.0,1.0,61,988.0,1.0,3.0,ABA,Raw_Data_III_Digit_Paradigm_2nd_Control_Group,,
BI_C2_Digit,51.0,1.0,62,420.0,1.0,1.0,CBA,Raw_Data_III_Digit_Paradigm_2nd_Control_Group,,
BI_C2_Digit,51.0,1.0,63,730.0,1.0,3.0,ABA,Raw_Data_III_Digit_Paradigm_2nd_Control_Group,,
BI_C2_Digit,51.0,1.0,64,669.0,1.0,1.0,ABA,Raw_Data_III_Digit_Paradigm_2nd_Control_Group,,
BI_C2_Digit,51.0,1.0,65,515.0,1.0,2.0,CBA,Raw_Data_III_Digit_Paradigm_2nd_Control_Group,,
BI_C2_Digit,51.0,1.0,66,550.0,1.0,1.0,ABA,Raw_Data_III_Digit_Paradigm_2nd_Control_Group,,
BI_C2_Digit,51.0,1.0,67,496.0,1.0,2.0,ABA,Raw_Data_III_Digit_Paradigm_2nd_Control_Group,,
BI_C2_Digit,51.0,1.0,68,540.0,1.0,3.0,CBA,Raw_Data_III_Digit_Paradigm_2nd_Control_Group,,
BI_C2_Digit,51.0,1.0,69,374.0,1.0,1.0,CBA,Raw_Data_III_Digit_Paradigm_2nd_Control_Group,,
BI_C2_Digit,51.0,1.0,70,582.0,0.0,2.0,CBA,Raw_Data_III_Digit_Paradigm_2nd_Control_Group,,
BI_C2_Digit,51.0,1.0,71,1331.0,0.0,3.0,CBA,Raw_Data_III_Digit_Paradigm_2nd_Control_Group,,
BI_C2_Digit,51.0,1.0,72,947.0,1.0,2.0,ABA,Raw_Data_III_Digit_Paradigm_2nd_Control_Group,,
BI_C2_Digit,51.0,1.0,73,725.0,1.0,3.0,ABA,Raw_Data_III_Digit_Paradigm_2nd_Control_Group,,
BI_C2_Digit,51.0,1.0,74,528.0,1.0,1.0,CBA,Raw_Data_III_Digit_Paradigm_2nd_Control_Group,,
BI_C2_Digit,51.0,1.0,75,746.0,1.0,2.0,CBA,Raw_Data_III_Digit_Paradigm_2nd_Control_Group,,
BI_C2_Digit,51.0,1.0,76,1340.0,0.0,1.0,ABA,Raw_Data_III_Digit_Paradigm_2nd_Control_Group,,
BI_C2_Digit,51.0,1.0,77,1259.0,1.0,2.0,ABA,Raw_Data_III_Digit_Paradigm_2nd_Control_Group,,
BI_C2_Digit,51.0,1.0,78,1225.0,1.0,3.0,CBA,Raw_Data_III_Digit_Paradigm_2nd_Control_Group,,
BI_C2_Digit,51.0,1.0,79,592.0,1.0,1.0,CBA,Raw_Data_III_Digit_Paradigm_2nd_Control_Group,,
BI_C2_Digit,51.0,1.0,80,1183.0,1.0,2.0,CBA,Raw_Data_III_Digit_Paradigm_2nd_Control_Group,,
BI_C2_Digit,51.0,1.0,81,1000.0,1.0,1.0,ABA,Raw_Data_III_Digit_Paradigm_2nd_Control_Group,,
BI_C2_Digit,51.0,1.0,82,753.0,1.0,3.0,CBA,Raw_Data_III_Digit_Paradigm_2nd_Control_Group,,
BI_C2_Digit,51.0,1.0,83,723.0,1.0,2.0,CBA,Raw_Data_III_Digit_Paradigm_2nd_Control_Group,,
BI_C2_Digit,51.0,1.0,84,430.0,1.0,1.0,CBA,Raw_Data_III_Digit_Paradigm_2nd_Control_Group,,
BI_C2_Digit,51.0,1.0,85,580.0,1.0,3.0,CBA,Raw_Data_III_Digit_Paradigm_2nd_Control_Group,,
BI_C2_Digit,51.0,1.0,86,429.0,1.0,1.0,ABA,Raw_Data_III_Digit_Paradigm_2nd_Control_Group,,
BI_C2_Digit,51.0,1.0,87,547.0,1.0,3.0,ABA,Raw_Data_III_Digit_Paradigm_2nd_Control_Group,,
BI_C2_Digit,51.0,1.0,88,421.0,1.0,1.0,ABA,Raw_Data_III_Digit_Paradigm_2nd_Control_Group,,
BI_C2_Digit,51.0,1.0,89,468.0,1.0,3.0,ABA,Raw_Data_III_Digit_Paradigm_2nd_Control_Group,,
BI_C2_Digit,51.0,1.0,90,1394.0,1.0,2.0,CBA,Raw_Data_III_Digit_Paradigm_2nd_Control_Group,,
BI_C2_Digit,51.0,1.0,91,929.0,1.0,3.0,ABA,Raw_Data_III_Digit_Paradigm_2nd_Control_Group,,
BI_C2_Digit,51.0,1.0,92,996.0,1.0,2.0,ABA,Raw_Data_III_Digit_Paradigm_2nd_Control_Group,,
BI_C2_Digit,51.0,1.0,93,533.0,1.0,1.0,CBA,Raw_Data_III_Digit_Paradigm_2nd_Control_Group,,
BI_C2_Digit,51.0,1.0,94,1623.0,1.0,3.0,CBA,Raw_Data_III_Digit_Paradigm_2nd_Control_Group,,
BI_C2_Digit,51.0,1.0,95,783.0,1.0,2.0,CBA,Raw_Data_III_Digit_Paradigm_2nd_Control_Group,,
BI_C2_Digit,51.0,1.0,96,784.0,0.0,3.0,ABA,Raw_Data_III_Digit_Paradigm_2nd_Control_Group,,
BI_C2_Digit,51.0,1.0,97,524.0,1.0,1.0,CBA,Raw_Data_III_Digit_Paradigm_2nd_Control_Group,,
BI_C2_Digit,51.0,1.0,98,759.0,1.0,2.0,CBA,Raw_Data_III_Digit_Paradigm_2nd_Control_Group,,
BI_C2_Digit,51.0,1.0,99,520.0,1.0,1.0,ABA,Raw_Data_III_Digit_Paradigm_2nd_Control_Group,,
BI_C2_Digit,51.0,1.0,100,860.0,1.0,3.0,CBA,Raw_Data_III_Digit_Paradigm_2nd_Control_Group,,
BI_C2_Digit,51.0,1.0,101,697.0,1.0,1.0,ABA,Raw_Data_III_Digit_Paradigm_2nd_Control_Group,,
BI_C2_Digit,51.0,1.0,102,1005.0,1.0,3.0,ABA,Raw_Data_III_Digit_Paradigm_2nd_Control_Group,,
BI_C2_Digit,51.0,1.0,103,708.0,1.0,2.0,CBA,Raw_Data_III_Digit_Paradigm_2nd_Control_Group,,
BI_C2_Digit,51.0,1.0,104,416.0,1.0,1.0,CBA,Raw_Data_III_Digit_Paradigm_2nd_Control_Group,,
BI_C2_Digit,51.0,1.0,105,951.0,1.0,2.0,ABA,Raw_Data_III_Digit_Paradigm_2nd_Control_Group,,
BI_C2_Digit,51.0,1.0,106,1090.0,0.0,1.0,ABA,Raw_Data_III_Digit_Paradigm_2nd_Control_Group,,
BI_C2_Digit,51.0,1.0,107,1146.0,1.0,3.0,CBA,Raw_Data_III_Digit_Paradigm_2nd_Control_Group,,
BI_C2_Digit,51.0,1.0,108,836.0,0.0,1.0,ABA,Raw_Data_III_Digit_Paradigm_2nd_Control_Group,,
BI_C2_Digit,51.0,1.0,109,1190.0,1.0,3.0,ABA,Raw_Data_III_Digit_Paradigm_2nd_Control_Group,,
BI_C2_Digit,51.0,1.0,110,1999.0,1.0,2.0,CBA,Raw_Data_III_Digit_Paradigm_2nd_Control_Group,,
BI_C2_Digit,51.0,1.0,111,792.0,0.0,1.0,CBA,Raw_Data_III_Digit_Paradigm_2nd_Control_Group,,
BI_C2_Digit,51.0,1.0,112,1115.0,1.0,3.0,CBA,Raw_Data_III_Digit_Paradigm_2nd_Control_Group,,
BI_C2_Digit,51.0,1.0,113,623.0,1.0,1.0,ABA,Raw_Data_III_Digit_Paradigm_2nd_Control_Group,,
BI_C2_Digit,51.0,1.0,114,598.0,1.0,2.0,CBA,Raw_Data_III_Digit_Paradigm_2nd_Control_Group,,
BI_C2_Digit,51.0,1.0,115,1110.0,1.0,1.0,ABA,Raw_Data_III_Digit_Paradigm_2nd_Control_Group,,
BI_C2_Digit,51.0,1.0,116,890.0,1.0,2.0,ABA,Raw_Data_III_Digit_Paradigm_2nd_Control_Group,,
BI_C2_Digit,51.0,1.0,117,822.0,1.0,1.0,ABA,Raw_Data_III_Digit_Paradigm_2nd_Control_Group,,
BI_C2_Digit,51.0,1.0,118,644.0,1.0,2.0,ABA,Raw_Data_III_Digit_Paradigm_2nd_Control_Group,,
BI_C2_Digit,51.0,1.0,119,426.0,1.0,1.0,ABA,Raw_Data_III_Digit_Paradigm_2nd_Control_Group,,
BI_C2_Digit,51.0,1.0,120,921.0,1.0,2.0,ABA,Raw_Data_III_Digit_Paradigm_2nd_Control_Group,,
BI_C2_Digit,51.0,2.0,1,1050.0,1.0,3.0,0.0,Raw_Data_III_Digit_Paradigm_2nd_Control_Group,,
BI_C2_Digit,51.0,2.0,2,584.0,1.0,2.0,0.0,Raw_Data_III_Digit_Paradigm_2nd_Control_Group,,
BI_C2_Digit,51.0,2.0,3,593.0,1.0,3.0,ABA,Raw_Data_III_Digit_Paradigm_2nd_Control_Group,,
BI_C2_Digit,51.0,2.0,4,665.0,1.0,2.0,ABA,Raw_Data_III_Digit_Paradigm_2nd_Control_Group,,
BI_C2_Digit,51.0,2.0,5,599.0,1.0,3.0,ABA,Raw_Data_III_Digit_Paradigm_2nd_Control_Group,,
BI_C2_Digit,51.0,2.0,6,807.0,1.0,2.0,ABA,Raw_Data_III_Digit_Paradigm_2nd_Control_Group,,
BI_C2_Digit,51.0,2.0,7,543.0,1.0,3.0,ABA,Raw_Data_III_Digit_Paradigm_2nd_Control_Group,,
BI_C2_Digit,51.0,2.0,8,544.0,1.0,2.0,ABA,Raw_Data_III_Digit_Paradigm_2nd_Control_Group,,
BI_C2_Digit,51.0,2.0,9,378.0,1.0,1.0,CBA,Raw_Data_III_Digit_Paradigm_2nd_Control_Group,,
BI_C2_Digit,51.0,2.0,10,571.0,1.0,2.0,ABA,Raw_Data_III_Digit_Paradigm_2nd_Control_Group,,
BI_C2_Digit,51.0,2.0,11,572.0,1.0,1.0,ABA,Raw_Data_III_Digit_Paradigm_2nd_Control_Group,,
BI_C2_Digit,51.0,2.0,12,581.0,1.0,2.0,ABA,Raw_Data_III_Digit_Paradigm_2nd_Control_Group,,
BI_C2_Digit,51.0,2.0,13,446.0,1.0,1.0,ABA,Raw_Data_III_Digit_Paradigm_2nd_Control_Group,,
BI_C2_Digit,51.0,2.0,14,467.0,1.0,3.0,CBA,Raw_Data_III_Digit_Paradigm_2nd_Control_Group,,
BI_C2_Digit,51.0,2.0,15,512.0,1.0,1.0,ABA,Raw_Data_III_Digit_Paradigm_2nd_Control_Group,,
BI_C2_Digit,51.0,2.0,16,524.0,1.0,3.0,ABA,Raw_Data_III_Digit_Paradigm_2nd_Control_Group,,
BI_C2_Digit,51.0,2.0,17,543.0,1.0,2.0,CBA,Raw_Data_III_Digit_Paradigm_2nd_Control_Group,,
BI_C2_Digit,51.0,2.0,18,433.0,1.0,1.0,CBA,Raw_Data_III_Digit_Paradigm_2nd_Control_Group,,
BI_C2_Digit,51.0,2.0,19,654.0,1.0,3.0,CBA,Raw_Data_III_Digit_Paradigm_2nd_Control_Group,,
BI_C2_Digit,51.0,2.0,20,596.0,1.0,2.0,CBA,Raw_Data_III_Digit_Paradigm_2nd_Control_Group,,
BI_C2_Digit,51.0,2.0,21,404.0,1.0,1.0,CBA,Raw_Data_III_Digit_Paradigm_2nd_Control_Group,,
BI_C2_Digit,51.0,2.0,22,516.0,1.0,3.0,CBA,Raw_Data_III_Digit_Paradigm_2nd_Control_Group,,
